Folder: MPEA_dataset

Note: README.md
# Expanded dataset of mechanical properties and observed phases of multi-principal element alloys

1. [2018 data](/2018_data/2018_data.csv)
This file was generated from previous reviews ([Gorsse2018](https://doi.org/10.1016/j.dib.2018.11.111), [Couzinine2018](https://doi.org/10.1016/j.dib.2018.10.071)).

2. [2019 data](/2019_data/2019_data.csv)
This file was generated through the extraction of data from references in [wos_query_refs.bib](/2019_data/wos_query_refs.bib).

3. combine_and_process.ipynb generates MPEA_dataset.csv

File: combined_data.csv
,REFERENCE: tag,REFERENCE: doi,FORMULA,PROPERTY: Type of phases,PROPERTY: Single/Multiphase,PROPERTY: synthesis method,PROPERTY: grain size ($\mu$m),PROPERTY: ROM Density (g/cm$^3$),PROPERTY: HV,PROPERTY: Type of test,PROPERTY: Test temperature ($^\circ$C),PROPERTY: YS (MPa),PROPERTY: UTS (MPa),PROPERTY: Elongation (%),PROPERTY: Elongation plastic (%),PROPERTY: ROM Young modulus (GPa),PROPERTY: Exp. Young modulus (GPa),PROPERTY: O content (wppm),PROPERTY: N content (wppm),PROPERTY: C content (wppm),REFERENCE: comment,Internal Reference #,Original DOI,PROPERTY: Exp. Density (g/cm$^3$),Unnamed: 22,IDENTIFIER: Reference ID
0,4,10.1016/j.jmmm.2014.07.023,Al0.25CoFeNi,FCC,S,AC,,7.9,138.0,C,25.0,158.0,,,,196.0,,,,,,,,,,27
1,4,10.1016/j.jmmm.2014.07.023,Al0.5CoFeNi,FCC+BCC,M,AC,,7.4,212.0,C,25.0,346.0,,,,187.0,,,,,,,,,,27
2,4,10.1016/j.jmmm.2014.07.023,Al0.75CoFeNi,FCC+BCC,M,AC,,7.0,385.0,C,25.0,794.0,,,,179.0,,,,,,,,,,27
3,4,10.1016/j.jmmm.2014.07.023,AlCoFeNi,BCC,S,AC,,6.6,456.0,C,25.0,964.0,,,,173.0,,,,,,,,,,27
4,4,10.1016/j.jmmm.2014.07.023,CoFeNi,FCC,S,AC,,8.5,125.0,C,25.0,204.0,,,,207.0,,,,,,,,,,27
5,4,10.1016/j.jmmm.2014.07.023,CoFeNi,FCC,S,AC,,8.5,125.0,C,25.0,209.0,,,,207.0,,,,,,,,,,27
6,4,10.1016/j.jmmm.2014.07.023,CoFeNiSi0.25,FCC,S,AC,,7.7,149.0,C,25.0,196.0,,,,194.0,,,,,,,,,,27
7,4,10.1016/j.jmmm.2014.07.023,CoFeNiSi0.5,FCC+Ni3Si,M,AC,,7.1,287.0,C,25.0,476.0,,,,,,,,,,,,,,27
8,4,10.1016/j.jmmm.2014.07.023,CoFeNiSi0.75,FCC+Ni3Si,M,AC,,6.6,570.0,C,25.0,1301.0,,,,,,,,,,,,,,27
9,5,10.1016/j.actamat.2014.08.026,CoCrFeNi,FCC,S,CR,24,8.2,,T,25.0,274.0,708.0,39,,225.0,,,,,elongation is total,,,,,37
10,5,10.1016/j.actamat.2014.08.026,CoCrMnNi,FCC,S,CR,36,8.1,,T,25.0,282.0,694.0,44,,222.0,,,,,elongation is total,,,,,37
11,5,10.1016/j.actamat.2014.08.026,CoCrNi,FCC,S,CR,41,8.3,,T,25.0,300.0,860.0,60,,229.0,,,,,elongation is total,,,,,37
12,5,10.1016/j.actamat.2014.08.026,CoFeMnNi,FCC,S,CR,48,8.2,,T,25.0,170.0,550.0,41,,205.0,,,,,elongation is total,,,,,37
13,5,10.1016/j.actamat.2014.08.026,CoFeNi,FCC,S,CR,28,8.5,,T,25.0,211.0,513.0,31,,207.0,,,,,elongation is total,,,,,37
14,5,10.1016/j.actamat.2014.08.026,CoMnNi,FCC,S,CR,32,8.4,,T,25.0,231.0,653.0,38,,202.0,,,,,elongation is total,,,,,37
15,5,10.1016/j.actamat.2014.08.026,FeMnNi,FCC,S,CR,30,8.1,,T,25.0,221.0,602.0,36,,203.0,,,,,elongation is total,,,,,37
16,6,10.1016/j.intermet.2015.01.004,CoCrFeNb0.103Ni,FCC+Laves (C14),M,AC,150-200,8.2,,T,25.0,318.0,622.0,19,,,,,,,all YS recorded as +1 MPa,,,,,46
17,6,10.1016/j.intermet.2015.01.004,CoCrFeNb0.155Ni,FCC+Laves (C14),M,AC,150-200,8.2,,T,25.0,322.0,744.0,23,,,,,,,all YS recorded as +1 MPa,,,,,46
18,6,10.1016/j.intermet.2015.01.004,CoCrFeNb0.206Ni,FCC+Laves (C14),M,AC,150-200,8.2,,T,25.0,403.0,807.0,9,,,,,,,all YS recorded as +1 MPa,,,,,46
19,6,10.1016/j.intermet.2015.01.004,CoCrFeNb0.309Ni,FCC+Laves (C14),M,AC,150-200,8.2,,T,25.0,479.0,879.0,4,,,,,,,all YS recorded as +1 MPa,,,,,46
20,6,10.1016/j.intermet.2015.01.004,CoCrFeNb0.412Ni,FCC+Laves (C14),M,AC,150-200,8.2,,T,25.0,638.0,1004.0,1,,,,,,,all YS recorded as +1 MPa,,,,,46
21,6,10.1016/j.intermet.2015.01.004,CoCrFeNi,FCC,S,AC,150-200,8.2,,T,25.0,148.0,413.0,48,,225.0,,,,,all YS recorded as +1 MPa,,,,,46
22,7,10.1016/j.jallcom.2009.08.090,Al0.25CoCrFeNi,FCC,S,A,,7.7,110.0,,25.0,,,,,216.0,,,,,,,,,,54
23,7,10.1016/j.jallcom.2009.08.090,Al0.25CoCrFeNi,FCC,S,A,,7.7,113.0,,25.0,,,,,216.0,,,,,,,,,,54
24,7,10.1016/j.jallcom.2009.08.090,Al0.375CoCrFeNi,FCC,S,A,,7.5,131.0,,25.0,,,,,211.0,,,,,,,,,,54
25,7,10.1016/j.jallcom.2009.08.090,Al0.375CoCrFeNi,FCC,S,A,,7.5,196.0,,25.0,,,,,211.0,,,,,,,,,,54
26,7,10.1016/j.jallcom.2009.08.090,Al0.5CoCrFeNi,FCC+BCC,M,A,,7.3,159.0,,25.0,,,,,208.0,,,,,,,,,,54
27,7,10.1016/j.jallcom.2009.08.090,Al0.5CoCrFeNi,FCC+BCC,M,A,,7.3,209.0,,25.0,,,,,208.0,,,,,,,,,,54
28,7,10.1016/j.jallcom.2009.08.090,Al0.75CoCrFeNi,FCC+BCC,M,A,,7.0,388.0,,25.0,,,,,200.0,,,,,,,,,,54
29,7,10.1016/j.jallcom.2009.08.090,Al0.75CoCrFeNi,FCC+BCC,M,A,,7.0,280.0,,25.0,,,,,200.0,,,,,,,,,,54
30,7,10.1016/j.jallcom.2009.08.090,Al0.875CoCrFeNi,BCC,S,A,,6.9,538.0,,25.0,,,,,197.0,,,,,,,,,,54
31,7,10.1016/j.jallcom.2009.08.090,Al0.875CoCrFeNi,FCC+BCC,M,A,,6.9,361.0,,25.0,,,,,197.0,,,,,,,,,,54
32,7,10.1016/j.jallcom.2009.08.090,Al1.25CoCrFeNi,BCC,S,A,,6.5,487.0,,25.0,,,,,188.0,,,,,,,,,,54
33,7,10.1016/j.jallcom.2009.08.090,Al1.25CoCrFeNi,BCC,S,A,,6.5,499.0,,25.0,,,,,188.0,,,,,,,,,,54
34,7,10.1016/j.jallcom.2009.08.090,Al1.5CoCrFeNi,BCC,S,A,,6.2,484.0,,25.0,,,,,183.0,,,,,,,,,,54
35,7,10.1016/j.jallcom.2009.08.090,Al1.5CoCrFeNi,BCC,S,A,,6.2,517.0,,25.0,,,,,183.0,,,,,,,,,,54
36,7,10.1016/j.jallcom.2009.08.090,Al2CoCrFeNi,BCC,S,A,,5.9,509.0,,25.0,,,,,173.0,,,,,,,,,,54
37,7,10.1016/j.jallcom.2009.08.090,Al2CoCrFeNi,BCC,S,A,,5.9,512.0,,25.0,,,,,173.0,,,,,,,,,,54
38,7,10.1016/j.jallcom.2009.08.090,AlCoCrFeNi,BCC,S,A,,6.7,484.0,,25.0,,,,,194.0,,,,,,,,,,54
39,7,10.1016/j.jallcom.2009.08.090,AlCoCrFeNi,FCC+BCC,M,A,,6.7,433.0,,25.0,,,,,194.0,,,,,,,,,,54
40,7,10.1016/j.jallcom.2009.08.090,CoCrFeNi,FCC,S,A,,8.2,116.0,,25.0,,,,,225.0,,,,,,,,,,54
41,7,10.1016/j.jallcom.2009.08.090,CoCrFeNi,FCC,S,A,,8.2,113.0,,25.0,,,,,225.0,,,,,,,,,,54
42,8,10.1007/s11837-013-0753-6,Al0.5CoCrFeMo0.5Ni,FCC+Sigma,M,AC,,7.7,425.0,,25.0,,,,,,,,,,,,,,,63
43,8,10.1007/s11837-013-0753-6,Al1.5CoCrFeMo0.5Ni,B2+Sigma,M,AC,,6.6,655.0,,25.0,,,,,,,,,,,,,,,63
44,8,10.1007/s11837-013-0753-6,Al2CoCrFeMo0.5Ni,BCC + B2,S,AC,,6.3,605.0,,25.0,,,,,185.0,,,,,,,,,,63
45,8,10.1007/s11837-013-0753-6,AlCoCrFeMo0.5Ni,B2+Sigma,M,AC,,7.1,715.0,,25.0,,,,,,,,,,,,,,,63
46,8,10.1007/s11837-013-0753-6,CoCrFeMo0.5Ni,FCC+Sigma,M,AC,,8.5,210.0,,25.0,,,,,,,,,,,,,,,63
47,9,10.1016/j.msea.2008.12.053,Al0.5CoCrFeNiTi,BCC+Laves,M,AC,,6.6,,C,25.0,,1600.0,,10.0,,107.0,,,,elongation is plastic ,,,,,66
48,9,10.1016/j.msea.2008.12.053,Al1.5CoCrFeNiTi,BCC + BCC,S,AC,,5.9,,C,25.0,,2110.0,,10.0,,133.0,,,,elongation is plastic ,,,,,66
49,9,10.1016/j.msea.2008.12.053,Al2CoCrFeNiTi,BCC + BCC,S,AC,,5.6,643.0,C,25.0,,1030.0,,5.0,,94.0,,,,elongation is plastic ,,,,,66
50,9,10.1016/j.msea.2008.12.053,AlCoCrFeNiTi,BCC+Laves,M,AC,0.1-0.2,6.2,,C,25.0,,2280.0,,6.0,,148.0,,,,elongation is plastic ,,,,,66
51,9,10.1016/j.msea.2008.12.053,CoCrFeNiTi,FCC,S,AC,,7.2,,C,25.0,,2020.0,,9.0,,135.0,,,,elongation is plastic ,,,,,66
52,10,10.1016/j.actamat.2011.06.041,Al0.2Co1.5CrFeNi1.5Ti,FCC+Ni3Ti,M,A,,7.2,717.0,,25.0,,,,,,,,,,,,,,,1
53,10,10.1016/j.actamat.2011.06.041,Al0.2Co1.5CrFeNi1.5Ti0.5,FCC,S,A,,7.6,487.0,,25.0,,,,,206.0,,,,,,,,,,1
54,10,10.1016/j.actamat.2011.06.041,Co1.5CrFeNi1.5Ti,FCC+Ni3Ti,M,A,,7.4,654.0,,25.0,,,,,,,,,,,,,,,1
55,10,10.1016/j.actamat.2011.06.041,Co1.5CrFeNi1.5Ti0.5,FCC ,S,A,,7.8,509.0,,25.0,,,,,211.0,,,,,,,,,,1
56,11,10.1016/j.matdes.2013.04.061,Al0.7Co0.3CrFeNi,FCC+BCC+B2,M,SPS,,6.8,624.0,C,25.0,2033.0,2635.0,8,,,,,,,labeled as plastic but is total,,,,,2
57,12,10.1016/C2013-0-14235-3,Al0.875CoCrFeNi,FCC+BCC,M,,,6.9,,,25.0,,,,,197.0,,,,,,,,,,3
58,13,10.1016/j.jallcom.2008.07.124,Al1.5CoCrFeNi,BCC,S,AC,,6.2,402.0,,25.0,,,,,183.0,,,,,,,,,,4
59,13,10.1016/j.jallcom.2008.07.124,Al2.5CoCrFeNi,BCC,S,AC,,5.6,487.0,,25.0,,,,,165.0,,,,,,,,,,4
60,13,10.1016/j.jallcom.2008.07.124,Al2CoCrFeNi,BCC,S,AC,,5.9,432.0,,25.0,,,,,173.0,,,,,,,,,,4
61,13,10.1016/j.jallcom.2008.07.124,Al3CoCrFeNi,BCC,S,AC,,5.3,506.0,,25.0,,,,,158.0,,,,,,,,,,4
[...]
900,J134,10.1007/s11661-018-4646-8,HfNbTaTiZr,BCC,S,HIP + CR + A,50.1,,,,,,,,,,,,,,,,,,,130
901,J134,10.1007/s11661-018-4646-8,HfNbTaTiZr,BCC,S,HIP + CR + A,21.9,,,,,,,,,,,,,,,,,,,130
902,J134,10.1007/s11661-018-4646-8,HfNbTaTiZr,BCC,S,HIP + CR + A,75.5,,,,,,,,,,,,,,,,,,,130
903,J135,10.1080/02670836.2018.1446267,AlNbTiZr,B2,S,AC,250,,422 $\pm$ 15,C,25.0,1509,,8.6,,,,,,,,,,5.85,,131
904,J135,10.1080/02670836.2018.1446267,AlNbTiZr,B2 + Zr5Al3,M,A,,,418 $\pm$ 15,C,25.0,1579,,17.8,,,,,,,,,,,,131
905,J135-18,10.1016/j.matlet.2015.08.099,AlNbTiVZr0.5,,,,,,,C,25.0,1480,,>50,,,,,,,,,,5.64,,132
906,J135-19,10.1179/1743284715Y.0000000032,AlNbTiZr,,,,,,539.6,C,25.0,1080,,5.9,,,,,,,,,,5.79,,133
907,J135-24,10.1016/j.actamat.2012.11.032,NbTiVZr,,,,,,335,C,25.0,1105,,>50,,,,,,,,,,6.52,,134
908,J135-24,10.1016/j.actamat.2012.11.032,CrNbTiZr,,,,,,418,C,25.0,1260,,6,,,,,,,,,,6.67,,134
909,new_ref_2,10.1002/maco.201709833,AlCrFeNiMo0.5,BCC+B2,M,AC,,,623.7,C,25.0,1914.1,4023.6,27.9,,,,,,,,,,,,265
910,new_ref_2,10.1002/maco.201709833,AlCrFeNiMo0.5Ti0.25,BCC+B2,M,AC,,,712,C,25.0,2161.7,3641.5,14.3,,,,,,,,,,,,265
911,new_ref_2,10.1002/maco.201709833,AlCrFeNiMo0.5Ti0.4,BCC+B2,M,AC,,,731.9,C,25.0,2185.1,3673.4,14.8,,,,,,,,,,,,265
912,new_ref_2,10.1002/maco.201709833,AlCrFeNiMo0.5Ti0.5,BCC+B2,M,AC,,,751.7,C,25.0,2228.7,3166.2,10.4,,,,,,,,,,,,265
913,new_ref_2,10.1002/maco.201709833,AlCrFeNiMo0.5Ti0.6,BCC+B2,M,AC,,,756.1,C,25.0,1314.5,1314.5,,,,,,,,,,,,,265
914,new_ref_2,10.1002/maco.201709833,AlCrFeNiMo0.5Ti0.75,BCC+B2,M,AC,,,766.2,C,25.0,618.8,618.8,,,,,,,,,,,,,265
915,new_ref_4,10.1016/j.matdes.2018.06.003,AlCrMoNb,Laves (C14)+A15,M,A,,,,,,,,,,,,,,,,,,,,266
916,new_ref_4,10.1016/j.matdes.2018.06.003,AlCrMoNb,Laves (C14)+A15,M,AC,,,,,,,,,,,,,,,,,,,,266
917,new_ref_4,10.1016/j.matdes.2018.06.003,AlHfNbTi,B2,S,A,,,,,,,,,,,,,,,,,,,,266
918,new_ref_4,10.1016/j.matdes.2018.06.003,AlHfNbTi,B2,S,AC,,,,,,,,,,,,,,,,,,,,266
919,new_ref_4,10.1016/j.matdes.2018.06.003,AlHfTaTi,B2,S,A,,,,,,,,,,,,,,,,,,,,266
920,new_ref_4,10.1016/j.matdes.2018.06.003,AlHfTaTi,B2,S,AC,,,,,,,,,,,,,,,,,,,,266
921,new_ref_4,10.1016/j.matdes.2018.06.003,AlMoNbTi,BCC+A15,M,A,,,,,,,,,,,,,,,,,,,,266
922,new_ref_4,10.1016/j.matdes.2018.06.003,AlMoNbTi,BCC,S,AC,,,509 $\pm$ 18,,,,,,,,,,,,,,,,,266
923,new_ref_4,10.1016/j.matdes.2018.06.003,AlNbTaTi,BCC+A15,M,A,,,,,,,,,,,,,,,,,,,,266
924,new_ref_4,10.1016/j.matdes.2018.06.003,AlNbTaTi,BCC,S,AC,,,458 $\pm$ 10,,,,,,,,,,,,,,,,,266
925,new_ref_4,10.1016/j.matdes.2018.06.003,CrMoTaTi,BCC,S,A,,,555 $\pm$ 24,,,,,,,,,,,,,,,,,266
926,new_ref_4,10.1016/j.matdes.2018.06.003,CrMoTaTi,BCC,S,AC,,,539 $\pm$ 32,,,,,,,,,,,,,,,,,266
927,new_ref_4,10.1016/j.matdes.2018.06.003,CrNbTaTi,BCC+Laves (C15),M,A,,,,,,,,,,,,,,,,,,,,266
928,new_ref_4,10.1016/j.matdes.2018.06.003,CrNbTaTi,BCC,S,AC,,,495 $\pm$ 26,,,,,,,,,,,,,,,,,266
929,new_ref_4,10.1016/j.matdes.2018.06.003,CrNbTiW,BCC+Laves (C15),M,A,,,630 $\pm$ 28,,,,,,,,,,,,,,,,,266
930,new_ref_4,10.1016/j.matdes.2018.06.003,CrNbTiW,BCC,S,AC,,,630 $\pm$ 24,,,,,,,,,,,,,,,,,266
931,new_ref_4,10.1016/j.matdes.2018.06.003,HfNbTaTi,BCC,S,A,,,280 $\pm$ 10,,,,,,,,,,,,,,,,,266
932,new_ref_4,10.1016/j.matdes.2018.06.003,HfNbTaTi,BCC,S,AC,,,270 $\pm$ 5,,,,,,,,,,,,,,,,,266
933,new_ref_4,10.1016/j.matdes.2018.06.003,MoNbTaTiW,BCC,S,A,,,482 $\pm$ 10,,,,,,,,,,,,,,,,,266
934,new_ref_4,10.1016/j.matdes.2018.06.003,MoNbTaTiW,BCC,S,AC,,,446 $\pm$ 32,,,,,,,,,,,,,,,,,266
935,new_ref_4,10.1016/j.matdes.2018.06.003,MoNbTaTi,BCC,S,A,,,407 $\pm$ 17,,,,,,,,,,,,,,,,,266
936,new_ref_4,10.1016/j.matdes.2018.06.003,MoNbTaTi,BCC,S,AC,,,431 $\pm$ 7,,,,,,,,,,,,,,,,,266

File: MPEA_dataset.csv
IDENTIFIER: Reference ID,FORMULA,PROPERTY: Microstructure,PROPERTY: Processing method,PROPERTY: BCC/FCC/other,PROPERTY: grain size ($\mu$m),PROPERTY: Exp. Density (g/cm$^3$),PROPERTY: Computed Density (g/cm$^3$),PROPERTY: HV,PROPERTY: Type of test,PROPERTY: Test temperature ($^\circ$C),PROPERTY: YS (MPa),PROPERTY: UTS (MPa),PROPERTY: Elongation (%),PROPERTY: Elongation plastic (%),PROPERTY: Exp. Young modulus (GPa),PROPERTY: Computed Young modulus (GPa),PROPERTY: O content (wppm),PROPERTY: N content (wppm),PROPERTY: C content (wppm),REFERENCE: doi,REFERENCE: year,REFERENCE: title
27,Al0.25 Co1 Fe1 Ni1,FCC,CAST,FCC,,,8.1,138.0,C,25.0,158.0,,,,,196,,,,10.1016/j.jmmm.2014.07.023,2014,Effects of Al and Si addition on the structure and properties of CoFeNi equal atomic ratio alloy
27,Al0.5 Co1 Fe1 Ni1,FCC+BCC,CAST,other,,,7.7,212.0,C,25.0,346.0,,,,,187,,,,10.1016/j.jmmm.2014.07.023,2014,Effects of Al and Si addition on the structure and properties of CoFeNi equal atomic ratio alloy
27,Al0.75 Co1 Fe1 Ni1,FCC+BCC,CAST,other,,,7.4,385.0,C,25.0,794.0,,,,,179,,,,10.1016/j.jmmm.2014.07.023,2014,Effects of Al and Si addition on the structure and properties of CoFeNi equal atomic ratio alloy
27,Al1 Co1 Fe1 Ni1,BCC,CAST,BCC,,,7.1,456.0,C,25.0,964.0,,,,,172,,,,10.1016/j.jmmm.2014.07.023,2014,Effects of Al and Si addition on the structure and properties of CoFeNi equal atomic ratio alloy
27,Co1 Fe1 Ni1,FCC,CAST,FCC,,,8.6,125.0,C,25.0,204.0,,,,,207,,,,10.1016/j.jmmm.2014.07.023,2014,Effects of Al and Si addition on the structure and properties of CoFeNi equal atomic ratio alloy
27,Co1 Fe1 Ni1,FCC,CAST,FCC,,,8.6,125.0,C,25.0,209.0,,,,,207,,,,10.1016/j.jmmm.2014.07.023,2014,Effects of Al and Si addition on the structure and properties of CoFeNi equal atomic ratio alloy
27,Co1 Fe1 Ni1 Si0.25,FCC,CAST,FCC,,,8.1,149.0,C,25.0,196.0,,,,,194,,,,10.1016/j.jmmm.2014.07.023,2014,Effects of Al and Si addition on the structure and properties of CoFeNi equal atomic ratio alloy
27,Co1 Fe1 Ni1 Si0.5,FCC+Sec.,CAST,other,,,7.7,287.0,C,25.0,476.0,,,,,184,,,,10.1016/j.jmmm.2014.07.023,2014,Effects of Al and Si addition on the structure and properties of CoFeNi equal atomic ratio alloy
27,Co1 Fe1 Ni1 Si0.75,FCC+Sec.,CAST,other,,,7.3,570.0,C,25.0,1301.0,,,,,175,,,,10.1016/j.jmmm.2014.07.023,2014,Effects of Al and Si addition on the structure and properties of CoFeNi equal atomic ratio alloy
37,Co1 Cr1 Fe1 Ni1,FCC,WROUGHT,FCC,24.0,,8.2,,T,25.0,274.0,708.0,39.0,,,225,,,,10.1016/j.actamat.2014.08.026,2014,Temperature dependence of the mechanical properties of equiatomic solid solution alloys with face-centered cubic crystal structures
37,Co1 Cr1 Mn1 Ni1,FCC,WROUGHT,FCC,36.0,,8.1,,T,25.0,282.0,694.0,44.0,,,222,,,,10.1016/j.actamat.2014.08.026,2014,Temperature dependence of the mechanical properties of equiatomic solid solution alloys with face-centered cubic crystal structures
37,Co1 Cr1 Ni1,FCC,WROUGHT,FCC,41.0,,8.3,,T,25.0,300.0,860.0,60.0,,,229,,,,10.1016/j.actamat.2014.08.026,2014,Temperature dependence of the mechanical properties of equiatomic solid solution alloys with face-centered cubic crystal structures
37,Co1 Fe1 Mn1 Ni1,FCC,WROUGHT,FCC,48.0,,8.3,,T,25.0,170.0,550.0,41.0,,,204,,,,10.1016/j.actamat.2014.08.026,2014,Temperature dependence of the mechanical properties of equiatomic solid solution alloys with face-centered cubic crystal structures
37,Co1 Fe1 Ni1,FCC,WROUGHT,FCC,28.0,,8.6,,T,25.0,211.0,513.0,31.0,,,207,,,,10.1016/j.actamat.2014.08.026,2014,Temperature dependence of the mechanical properties of equiatomic solid solution alloys with face-centered cubic crystal structures
37,Co1 Mn1 Ni1,FCC,WROUGHT,FCC,32.0,,8.4,,T,25.0,231.0,653.0,38.0,,,202,,,,10.1016/j.actamat.2014.08.026,2014,Temperature dependence of the mechanical properties of equiatomic solid solution alloys with face-centered cubic crystal structures
37,Fe1 Mn1 Ni1,FCC,WROUGHT,FCC,30.0,,8.1,,T,25.0,221.0,602.0,36.0,,,203,,,,10.1016/j.actamat.2014.08.026,2014,Temperature dependence of the mechanical properties of equiatomic solid solution alloys with face-centered cubic crystal structures
46,Co1 Cr1 Fe1 Nb0.103 Ni1,FCC+Laves (C14),CAST,other,175.0,,8.2,,T,25.0,318.0,622.0,19.0,,,222,,,,10.1016/j.intermet.2015.01.004,2015,Effects of Nb additions on the microstructure and mechanical property of CoCrFeNi high-entropy alloys
46,Co1 Cr1 Fe1 Nb0.155 Ni1,FCC+Laves (C14),CAST,other,175.0,,8.2,,T,25.0,322.0,744.0,23.0,,,220,,,,10.1016/j.intermet.2015.01.004,2015,Effects of Nb additions on the microstructure and mechanical property of CoCrFeNi high-entropy alloys
46,Co1 Cr1 Fe1 Nb0.206 Ni1,FCC+Laves (C14),CAST,other,175.0,,8.2,,T,25.0,403.0,807.0,9.0,,,219,,,,10.1016/j.intermet.2015.01.004,2015,Effects of Nb additions on the microstructure and mechanical property of CoCrFeNi high-entropy alloys
46,Co1 Cr1 Fe1 Nb0.309 Ni1,FCC+Laves (C14),CAST,other,175.0,,8.2,,T,25.0,479.0,879.0,4.0,,,216,,,,10.1016/j.intermet.2015.01.004,2015,Effects of Nb additions on the microstructure and mechanical property of CoCrFeNi high-entropy alloys
46,Co1 Cr1 Fe1 Nb0.412 Ni1,FCC+Laves (C14),CAST,other,175.0,,8.2,,T,25.0,638.0,1004.0,1.0,,,214,,,,10.1016/j.intermet.2015.01.004,2015,Effects of Nb additions on the microstructure and mechanical property of CoCrFeNi high-entropy alloys
46,Co1 Cr1 Fe1 Ni1,FCC,CAST,FCC,175.0,,8.2,,T,25.0,148.0,413.0,48.0,,,225,,,,10.1016/j.intermet.2015.01.004,2015,Effects of Nb additions on the microstructure and mechanical property of CoCrFeNi high-entropy alloys
54,Al0.25 Co1 Cr1 Fe1 Ni1,FCC,ANNEAL,FCC,,,7.9,110.0,,25.0,,,,,,216,,,,10.1016/j.jallcom.2009.08.090,2009,"Microstructure and mechanical property of as-cast, -homogenized, and -deformed AlxCoCrFeNi (0≤x≤2) high-entropy alloys"
54,Al0.25 Co1 Cr1 Fe1 Ni1,FCC,ANNEAL,FCC,,,7.9,113.0,,25.0,,,,,,216,,,,10.1016/j.jallcom.2009.08.090,2009,"Microstructure and mechanical property of as-cast, -homogenized, and -deformed AlxCoCrFeNi (0≤x≤2) high-entropy alloys"
54,Al0.375 Co1 Cr1 Fe1 Ni1,FCC,ANNEAL,FCC,,,7.7,131.0,,25.0,,,,,,211,,,,10.1016/j.jallcom.2009.08.090,2009,"Microstructure and mechanical property of as-cast, -homogenized, and -deformed AlxCoCrFeNi (0≤x≤2) high-entropy alloys"
54,Al0.375 Co1 Cr1 Fe1 Ni1,FCC,ANNEAL,FCC,,,7.7,196.0,,25.0,,,,,,211,,,,10.1016/j.jallcom.2009.08.090,2009,"Microstructure and mechanical property of as-cast, -homogenized, and -deformed AlxCoCrFeNi (0≤x≤2) high-entropy alloys"
54,Al0.5 Co1 Cr1 Fe1 Ni1,FCC+BCC,ANNEAL,other,,,7.6,159.0,,25.0,,,,,,208,,,,10.1016/j.jallcom.2009.08.090,2009,"Microstructure and mechanical property of as-cast, -homogenized, and -deformed AlxCoCrFeNi (0≤x≤2) high-entropy alloys"
54,Al0.5 Co1 Cr1 Fe1 Ni1,FCC+BCC,ANNEAL,other,,,7.6,209.0,,25.0,,,,,,208,,,,10.1016/j.jallcom.2009.08.090,2009,"Microstructure and mechanical property of as-cast, -homogenized, and -deformed AlxCoCrFeNi (0≤x≤2) high-entropy alloys"
54,Al0.75 Co1 Cr1 Fe1 Ni1,FCC+BCC,ANNEAL,other,,,7.3,388.0,,25.0,,,,,,200,,,,10.1016/j.jallcom.2009.08.090,2009,"Microstructure and mechanical property of as-cast, -homogenized, and -deformed AlxCoCrFeNi (0≤x≤2) high-entropy alloys"
[...]
132,Hf1 Nb1 Ta1 Ti1 Zr1,BCC,OTHER,BCC,,,9.9,,T,25.0,1134.0,1134.0,7.6,,109.1,111,,,,10.1007/s11661-018-4646-8,2018,Effect of Cold Deformation and Annealing on the Microstructure and Tensile Properties of a HfNbTaTiZr Refractory High Entropy Alloy
132,Hf1 Nb1 Ta1 Ti1 Zr1,BCC,OTHER,BCC,,,9.9,,T,25.0,1094.0,1066.0,6.0,,105.3,111,,,,10.1007/s11661-018-4646-8,2018,Effect of Cold Deformation and Annealing on the Microstructure and Tensile Properties of a HfNbTaTiZr Refractory High Entropy Alloy
132,Hf1 Nb1 Ta1 Ti1 Zr1,BCC,OTHER,BCC,,,9.9,,T,25.0,1071.0,964.0,4.6,,91.6,111,,,,10.1007/s11661-018-4646-8,2018,Effect of Cold Deformation and Annealing on the Microstructure and Tensile Properties of a HfNbTaTiZr Refractory High Entropy Alloy
132,Hf1 Nb1 Ta1 Ti1 Zr1,BCC,OTHER,BCC,24.4,,9.9,,T,25.0,1107.0,977.0,13.9,,92.6,111,,,,10.1007/s11661-018-4646-8,2018,Effect of Cold Deformation and Annealing on the Microstructure and Tensile Properties of a HfNbTaTiZr Refractory High Entropy Alloy
132,Hf1 Nb1 Ta1 Ti1 Zr1,BCC,OTHER,BCC,31.3,,9.9,,T,25.0,1115.0,830.0,18.5,,92.6,111,,,,10.1007/s11661-018-4646-8,2018,Effect of Cold Deformation and Annealing on the Microstructure and Tensile Properties of a HfNbTaTiZr Refractory High Entropy Alloy
132,Hf1 Nb1 Ta1 Ti1 Zr1,BCC,OTHER,BCC,38.4,,9.9,,T,25.0,1114.0,935.0,12.2,,101.3,111,,,,10.1007/s11661-018-4646-8,2018,Effect of Cold Deformation and Annealing on the Microstructure and Tensile Properties of a HfNbTaTiZr Refractory High Entropy Alloy
132,Hf1 Nb1 Ta1 Ti1 Zr1,BCC,OTHER,BCC,50.1,,9.9,,,,,,,,,111,,,,10.1007/s11661-018-4646-8,2018,Effect of Cold Deformation and Annealing on the Microstructure and Tensile Properties of a HfNbTaTiZr Refractory High Entropy Alloy
132,Hf1 Nb1 Ta1 Ti1 Zr1,BCC,OTHER,BCC,21.9,,9.9,,,,,,,,,111,,,,10.1007/s11661-018-4646-8,2018,Effect of Cold Deformation and Annealing on the Microstructure and Tensile Properties of a HfNbTaTiZr Refractory High Entropy Alloy
132,Hf1 Nb1 Ta1 Ti1 Zr1,BCC,OTHER,BCC,75.5,,9.9,,,,,,,,,111,,,,10.1007/s11661-018-4646-8,2018,Effect of Cold Deformation and Annealing on the Microstructure and Tensile Properties of a HfNbTaTiZr Refractory High Entropy Alloy
133,Al1 Nb1 Ti1 Zr1,B2,CAST,other,250.0,5.85,5.6,422.0,C,25.0,1509.0,,8.6,,,90,,,,10.1080/02670836.2018.1446267,2018,Microstructure and mechanical properties of a novel refractory AlNbTiZr high-entropy alloy
133,Al1 Nb1 Ti1 Zr1,,ANNEAL,other,,,5.6,418.0,C,25.0,1579.0,,17.8,,,90,,,,10.1080/02670836.2018.1446267,2018,Microstructure and mechanical properties of a novel refractory AlNbTiZr high-entropy alloy
134,Al1 Nb1 Ti1 V1 Zr0.5,,,other,,5.64,5.6,,C,25.0,1480.0,,50.0,,,101,,,,10.1016/j.matlet.2015.08.099,2015,An AlNbTiVZr0.5 high-entropy alloy combining high specific strength and good ductility
135,Al1 Nb1 Ti1 Zr1,,,other,,5.79,5.6,539.6,C,25.0,1080.0,,5.9,,,90,,,,10.1179/1743284715Y.0000000032,2015,"Effect of Al on structure and mechanical properties of AlxNbTiVZr (x = 0, 0.5, 1, 1.5) high entropy alloys"
136,Nb1 Ti1 V1 Zr1,,,other,,6.52,6.4,335.0,C,25.0,1105.0,,50.0,,,104,,,,10.1016/j.actamat.2012.11.032,2013,"Low-density, refractory multi-principal element alloys of the Cr–Nb–Ti–V–Zr system: Microstructure and phase analysis"
136,Cr1 Nb1 Ti1 Zr1,,,other,,6.67,6.7,418.0,C,25.0,1260.0,,6.0,,,142,,,,10.1016/j.actamat.2012.11.032,2013,"Low-density, refractory multi-principal element alloys of the Cr–Nb–Ti–V–Zr system: Microstructure and phase analysis"