Folder: MPEA_dataset/2019_data

Note: README.md
# Expanded dataset of mechanical properties and observed phases of multi-principal element alloys

1. [2018 data](/2018_data/2018_data.csv)
This file was generated from previous reviews ([Gorsse2018](https://doi.org/10.1016/j.dib.2018.11.111), [Couzinine2018](https://doi.org/10.1016/j.dib.2018.10.071)).

2. [2019 data](/2019_data/2019_data.csv)
This file was generated through the extraction of data from references in [wos_query_refs.bib](/2019_data/wos_query_refs.bib).

3. combine_and_process.ipynb generates MPEA_dataset.csv

File: 2019_data.csv
REFERENCE: tag,REFERENCE: doi,FORMULA,Internal Reference #,Original DOI,PROPERTY: Type of phases,PROPERTY: Single/Multiphase,PROPERTY: synthesis method,PROPERTY: grain size ($\mu$m),PROPERTY: Exp. Density (g/cm$^3$),PROPERTY: HV,PROPERTY: Type of test,PROPERTY: Test temperature ($^\circ$C),PROPERTY: YS (MPa),PROPERTY: UTS (MPa),PROPERTY: Elongation (%),PROPERTY: Elongation plastic (%),PROPERTY: Exp. Young modulus (GPa),PROPERTY: O content (wppm),PROPERTY: N content (wppm),PROPERTY: C content (wppm),REFERENCE: comment,
J2,10.1016/j.scriptamat.2018.08.048,Al0.3CoCrFeNi,,,FCC + B2 + Sigma,M,CR + A,0.71 $\pm$ 0.35,,,T,25,900,1074,25,,,,,,,
J3,10.1016/j.jallcom.2018.08.093,Fe40Mn25Cr20Ni15,,,FCC + BCC,M,AC,75,,,C,25,219,,,,,,,,,
J3,10.1016/j.jallcom.2018.08.093,Fe40Mn25Cr20Ni15Al2,,,FCC + BCC,M,AC,,,,C,25,354,,,,,,,,,
J3,10.1016/j.jallcom.2018.08.093,Fe40Mn25Cr20Ni15Al6,,,FCC + BCC,M,AC,,,,C,25,550,,,,,,,,,
J3,10.1016/j.jallcom.2018.08.093,Fe40Mn25Cr20Ni15Al10,,,B2 + BCC,M,AC,175,,,C,25,994,,,,,,,,,
J3,10.1016/j.jallcom.2018.08.093,Fe40Mn25Cr20Ni15Al14,,,B2 + BCC,M,AC,175,,,C,25,942,,,,,,,,,
J3,10.1016/j.jallcom.2018.08.093,Fe40Mn25Cr20Ni15,,,FCC + BCC,M,AC,,,,C,400,132,,,,,,,,,
J3,10.1016/j.jallcom.2018.08.093,Fe40Mn25Cr20Ni15Al2,,,FCC + BCC,M,AC,,,,C,400,260,,,,,,,,,
J3,10.1016/j.jallcom.2018.08.093,Fe40Mn25Cr20Ni15Al6,,,FCC + BCC,M,AC,,,,C,400,469,,,,,,,,,
J3,10.1016/j.jallcom.2018.08.093,Fe40Mn25Cr20Ni15Al10,,,B2 + BCC,M,AC,,,,C,400,943,,,,,,,,,
J3,10.1016/j.jallcom.2018.08.093,Fe40Mn25Cr20Ni15Al14,,,B2 + BCC,M,AC,,,,C,400,833,,,,,,,,,
J3,10.1016/j.jallcom.2018.08.093,Fe40Mn25Cr20Ni15,,,FCC + BCC,M,AC,,,,C,600,115,,,,,,,,,
J3,10.1016/j.jallcom.2018.08.093,Fe40Mn25Cr20Ni15Al2,,,FCC + BCC,M,AC,,,,C,600,155,,,,,,,,,
J3,10.1016/j.jallcom.2018.08.093,Fe40Mn25Cr20Ni15Al6,,,FCC + BCC,M,AC,,,,C,600,272,,,,,,,,,
J3,10.1016/j.jallcom.2018.08.093,Fe40Mn25Cr20Ni15Al10,,,B2 + BCC,M,AC,,,,C,600,359,,,,,,,,,
J3,10.1016/j.jallcom.2018.08.093,Fe40Mn25Cr20Ni15Al14,,,B2 + BCC,M,AC,,,,C,600,326,,,,,,,,,
J4-8,10.1016/j.actamat.2013.06.018,CoCrFeMnNi,8,10.1016/j.actamat.2013.06.018,FCC,S,CR + A,4.4,,,T,25,370,670,56,,,,,,switched to engineering stress strain ,https://doi.org/10.1016/j.actamat.2013.06.018
J4-18,10.1016/j.actamat.2017.03.069,Co10Cr10Fe50Mn30,18,10.1016/j.actamat.2017.03.069,FCC + HCP,M,A,45,,,T,25,250,730,50,,,,,,switched to engineering stress strain ,
J4-18,10.1016/j.actamat.2017.03.069,Co10Cr10Fe50Mn30,18,10.1016/j.actamat.2017.03.069,FCC + HCP,M,CR + A,4.5,,,T,25,330,870,75,,,,,,switched to engineering stress strain ,
J4-18,10.1016/j.actamat.2017.03.069,Co10Cr10Fe50Mn30,18,10.1016/j.actamat.2017.03.069,FCC + HCP,M,CR + A,6,,,T,25,280,800,65,,,,,,switched to engineering stress strain ,
J4-18,10.1016/j.actamat.2017.03.069,Co10Cr10Fe50Mn30,18,10.1016/j.actamat.2017.03.069,FCC + HCP,M,CR + A,15,,,T,25,350,830,63,,,,,,switched to engineering stress strain ,
J4-34,10.1038/s41598-017-16509-9,Co10Cr10Fe50Mn30,34,10.1038/s41598-017-16509-9,FCC + HCP,M,HR + A,6.5,,,T,25,298,1400,45,,,,,,removed true stress strain values,
J4-34,10.1038/s41598-017-16509-9,Co10Cr10Fe50Mn30,34,10.1038/s41598-017-16509-9,FCC + HCP,M,HR + A,5.2,,,T,25,400,1200,42,,,,,,removed true stress strain values,
J4-60,10.1016/j.matlet.2017.04.072,Al7Co23Cr23Fe23Ni23,60,10.1016/j.matlet.2017.04.072,FCC + B2,M,,0.7,,,T,25,860,1050,48,,,,,,"Data extracted from Table 6, does not belong in below data",
J4-60,10.1016/j.matlet.2017.04.072,Al7Co23Cr23Fe23Ni23,60,10.1016/j.matlet.2017.04.072,FCC + B2,M,,2.7,,,T,25,690,930,51,,,,,,,
J4-60,10.1016/j.matlet.2017.04.072,Al7Co23Cr23Fe23Ni23,60,10.1016/j.matlet.2017.04.072,FCC + B2,M,,3.8,,,T,25,550,800,64,,,,,,,
J4-60,10.1016/j.matlet.2017.04.072,Al7Co23Cr23Fe23Ni23,60,10.1016/j.matlet.2017.04.072,FCC,S,,53,,,T,25,260,620,87,,,,,,,
J4-60,10.1016/j.matlet.2017.04.072,Al7Co23Cr23Fe23Ni23,60,10.1016/j.matlet.2017.04.072,FCC + BCC,M,CR + A,,,,,,,,,,,,,,,
J4-40,10.1016/j.scriptamat.2016.06.019,Al7Co23Cr23Fe23Ni23,40,10.1016/j.scriptamat.2016.06.019,FCC,S,CR + A,,,,,,,,,,,,,,,
J4-40,10.1016/j.scriptamat.2016.06.019,Al7Co23Cr23Fe23Ni23,40,10.1016/j.scriptamat.2016.06.019,FCC + L12,M,CR + A,,,,,,,,,,,,,,,
J4-40,10.1016/j.scriptamat.2016.06.019,Al7Co23Cr23Fe23Ni23,40,10.1016/j.scriptamat.2016.06.019,FCC + L12,M,CR + A,,,,,,,,,,,,,,,
J4-39,10.1016/j.matdes.2017.02.072,Al7Co23Cr23Fe23Ni23,39,10.1016/j.matdes.2017.02.072,FCC,S,CR + A,144,,,T,25,159,410,65,,,,,,,
J4-39,10.1016/j.matdes.2017.02.072,Al7Co23Cr23Fe23Ni23,39,10.1016/j.matdes.2017.02.072,FCC + B2,M,CR + A,144,,,T,25,215,520,43,,,,,,,
J4-39,10.1016/j.matdes.2017.02.072,Al7Co23Cr23Fe23Ni23,39,10.1016/j.matdes.2017.02.072,FCC + L12,M,CR + A,144,,,T,25,285,540,55,,,,,,,
J4-39,10.1016/j.matdes.2017.02.072,Al7Co23Cr23Fe23Ni23,39,10.1016/j.matdes.2017.02.072,FCC,S,CR + A,23,,,T,25,263,589,60,,,,,,,
J4-39,10.1016/j.matdes.2017.02.072,Al7Co23Cr23Fe23Ni23,39,10.1016/j.matdes.2017.02.072,FCC + L12 + B2,M,CR + A,23,,,T,25,490,840,45,,,,,,,
J4-61,10.1016/j.actamat.2017.03.066,Al7Co23Cr23Fe23Ni23,61,10.1016/j.actamat.2017.03.066,FCC + BCC,M,A,,,,,,,,,,,,,,,
J4-62,10.1016/j.jallcom.2008.12.088,Al7Co23Cr23Fe23Ni23,62,10.1016/j.jallcom.2008.12.088,FCC + L12,M,AC,,,,T,25,175,335,58,,,,,,Added and replaced data sets,
J4-62,10.1016/j.jallcom.2008.12.088,Al7Co23Cr23Fe23Ni23,62,10.1016/j.jallcom.2008.12.088,FCC + L12,M,A,,,,T,25,305,525,44,,,,,,,
J4-62,10.1016/j.jallcom.2008.12.088,Al7Co23Cr23Fe23Ni23,62,10.1016/j.jallcom.2008.12.088,FCC + B2,M,A,,,,T,25,280,570,44,,,,,,,
J4-63,10.1016/j.jallcom.2013.11.084,Al7Co23Cr23Fe23Ni23,63,10.1016/j.jallcom.2013.11.084,FCC,S,Aged,,,,,,,,,,,,,,,
J4-63,10.1016/j.jallcom.2013.11.084,Al7Co23Cr23Fe23Ni23,63,10.1016/j.jallcom.2013.11.084,FCC,S,Aged,,,,,,,,,,,,,,,
J4-64,10.1016/j.matdes.2016.05.079,Al7Co23Cr23Fe23Ni23,64,10.1016/j.matdes.2016.05.079,FCC + B2,M,Aged,,,,,,,,,,,,,,,
J4-71,10.1016/j.jallcom.2017.03.307,AlCoCrFeNi,71,10.1016/j.jallcom.2017.03.307,BCC + B2,M,AC,,,,T,25,395,400,1,,,,,,I don't like this reference...,
J4-70,10.1016/j.jallcom.2016.05.034,AlCoCrFeNi,70,10.1016/j.jallcom.2016.05.034,BCC + B2,M,AC,,,,C,25,1380,,10,,,,,,,
J4-70,10.1016/j.jallcom.2016.05.034,AlCoCrFeNi,70,10.1016/j.jallcom.2016.05.034,BCC + $\sigma$ + B2 + FCC,M,A,,,,C,25,1430,,1.6,,,,,,,
J4-70,10.1016/j.jallcom.2016.05.034,AlCoCrFeNi,70,10.1016/j.jallcom.2016.05.034,BCC + B2 + FCC,M,A,,,,C,25,1690,,2.7,,,,,,,
J4-70,10.1016/j.jallcom.2016.05.034,AlCoCrFeNi,70,10.1016/j.jallcom.2016.05.034,BCC + B2 + FCC,M,A,,,,C,25,1220,,13,,,,,,,
J4-70,10.1016/j.jallcom.2016.05.034,AlCoCrFeNi,70,10.1016/j.jallcom.2016.05.034,BCC + B2 + FCC,M,A,,,,C,25,1450,,20,,,,,,,
J4-71,10.1016/j.jallcom.2017.03.307,AlCoCrFeNi,71,10.1016/j.jallcom.2017.03.307,FCC + BCC,M,A,,,,T,25,900,935,0.8,,,,,,I don't like this reference...,
J4-73,10.1016/j.matlet.2016.01.096,Al17Cr17Fe33Ni33,73,10.1016/j.matlet.2016.01.096,FCC + BCC + B2,M,AC,,,,T,25,796,1437,15.7,,,,,,,
J4-74,10.1016/j.actamat.2016.11.016,Al17Co17Cr17Fe17Ni33.3,74,10.1016/j.actamat.2016.11.016,L12 + B2,M,,,,,T,25,545,1030,16.5,,,,,,the reference has more accurate numbers: https://sci-hub.tw/https://doi.org/10.1016/j.actamat.2016.11.016,
J4-74,10.1016/j.actamat.2016.11.016,Al16Co16Cr16Fe16Ni34.4,74,10.1016/j.actamat.2016.11.016,L12 + B2,M,,,,,T,25,545,1050,16.5,,,,,,the reference has more accurate numbers: https://sci-hub.tw/https://doi.org/10.1016/j.actamat.2016.11.017,
J4-74,10.1016/j.actamat.2016.11.016,Al16Co16Cr16Fe16Ni35.5,74,10.1016/j.actamat.2016.11.016,L12 + B2,M,,,,,T,25,545,1110,20,,,,,,the reference has more accurate numbers: https://sci-hub.tw/https://doi.org/10.1016/j.actamat.2016.11.018,
J4-74,10.1016/j.actamat.2016.11.016,Al17Co17Cr17Fe17Ni33.3,74,10.1016/j.actamat.2016.11.016,,,,,,,T,-70,580,1034,10.5,,,,,,the reference has more accurate numbers: https://sci-hub.tw/https://doi.org/10.1016/j.actamat.2016.11.019,
J4-74,10.1016/j.actamat.2016.11.016,Al16Co16Cr16Fe16Ni34.4,74,10.1016/j.actamat.2016.11.016,,,,,,,T,-70,595,1168,15.8,,,,,,the reference has more accurate numbers: https://sci-hub.tw/https://doi.org/10.1016/j.actamat.2016.11.020,
J4-74,10.1016/j.actamat.2016.11.016,Al16Co16Cr16Fe16Ni35.5,74,10.1016/j.actamat.2016.11.016,,,,,,,T,-70,570,1143,18,,,,,,the reference has more accurate numbers: https://sci-hub.tw/https://doi.org/10.1016/j.actamat.2016.11.021,
J4-74,10.1016/j.actamat.2016.11.016,Al17Co17Cr17Fe17Ni33.3,74,10.1016/j.actamat.2016.11.016,,,,,,,T,-192,700,1000,4,,,,,,UTS range (low value recorded),
J4-74,10.1016/j.actamat.2016.11.016,Al16Co16Cr16Fe16Ni34.4,74,10.1016/j.actamat.2016.11.016,,,,,,,T,-192,700,1000,7,,,,,,UTS range (low value recorded),
J4-74,10.1016/j.actamat.2016.11.016,Al16Co16Cr16Fe16Ni35.5,74,10.1016/j.actamat.2016.11.016,,,,,,,T,-192,700,1000,9,,,,,,UTS range (low value recorded),
J4-77,10.1016/j.scriptamat.2016.04.014,Al12Co18Cr18Fe35Ni18,77,10.1016/j.scriptamat.2016.04.014,BCC + B2,M,AC,,,,T,25,866,1223,7.9,,,,,,,
J4-77,10.1016/j.scriptamat.2016.04.014,Al12Co18Cr18Fe35Ni18,77,10.1016/j.scriptamat.2016.04.014,,,AC,,,,T,650,400,468,6.3,,,,,,,
J4-77,10.1016/j.scriptamat.2016.04.014,Al12Co18Cr18Fe35Ni18,77,10.1016/j.scriptamat.2016.04.014,,,AC,,,,T,700,220,340,5.4,,,,,,,
J4-77,10.1016/j.scriptamat.2016.04.014,Al12Co18Cr18Fe35Ni18,77,10.1016/j.scriptamat.2016.04.014,,,AC,,,,C,25,1166,,30.2,,,,,,,
J4-85,10.1016/j.scriptamat.2017.05.019,Co35Cr15Fe20Ni20Mo10,85,10.1016/j.scriptamat.2017.05.019,FCC,S,AC,,,,T,25,350,720,21.9,,,,,,wrong processing ,
J4-85,10.1016/j.scriptamat.2017.05.019,Co35Cr15Fe20Ni20Mo10,85,10.1016/j.scriptamat.2017.05.019,FCC + $\mu$,M,CR + A,,,,T,25,1311,1410,12.1,,,,,,wrong processing ,
J4-85,10.1016/j.scriptamat.2017.05.019,Co35Cr15Fe20Ni20Mo10,85,10.1016/j.scriptamat.2017.05.019,FCC + $\mu$,M,CR + A,,,,T,25,1212,1360,14.9,,,,,,wrong processing ,
J4-85,10.1016/j.scriptamat.2017.05.019,Co35Cr15Fe20Ni20Mo10,85,10.1016/j.scriptamat.2017.05.019,FCC + $\mu$,M,CR + A,,,,T,25,1028,1249,18.3,,,,,,wrong processing ,
J4-85,10.1016/j.scriptamat.2017.05.019,Co35Cr15Fe20Ni20Mo10,85,10.1016/j.scriptamat.2017.05.019,FCC + $\mu$,M,CR + A,,,,T,25,879,1194,25.4,,,,,,wrong processing ,
J4-85,10.1016/j.scriptamat.2017.05.019,Co35Cr15Fe20Ni20Mo10,85,10.1016/j.scriptamat.2017.05.019,FCC + $\mu$,M,CR + A,,,,T,25,799,1127,28.2,,,,,,wrong processing ,
J4-85,10.1016/j.scriptamat.2017.05.019,Co35Cr15Fe20Ni20Mo10,85,10.1016/j.scriptamat.2017.05.019,FCC,S,CR + A,,,,T,25,350,918,62.4,,,,,,wrong processing ,
J4-79,10.1016/j.actamat.2016.06.063,Co25Cr25Fe25Ni25,79,10.1016/j.actamat.2016.06.063,FCC,S,AC,,,,T,25,155,472.4,58.9,,,,,,,
J4-79,10.1016/j.actamat.2016.06.063,Co24Cr24Fe24Ni24Mo2,79,10.1016/j.actamat.2016.06.063,,,AC,,,,T,25,198.8,479,51.1,,,,,,,
J4-79,10.1016/j.actamat.2016.06.063,Co24Cr24Fe24Ni24Mo5,79,10.1016/j.actamat.2016.06.063,,,AC,,,,T,25,254.7,589.6,55.1,,,,,,,
J4-79,10.1016/j.actamat.2016.06.063,Co23Cr23Fe23Ni23Mo7,79,10.1016/j.actamat.2016.06.063,FCC + $\sigma$,M,AC,,,,T,25,305.3,709.7,49.3,,,,,,,
J4-79,10.1016/j.actamat.2016.06.063,Co23Cr23Fe23Ni23Mo7,79,10.1016/j.actamat.2016.06.063,FCC + $\mu$ + $\sigma$,M,CR + A,1 - 5,,,T,25,815.5,1186.5,18.9,,,,,,not the actual grain size. precipitate sizes currently recorded,
J4-79,10.1016/j.actamat.2016.06.063,Co23Cr23Fe23Ni23Mo7,79,10.1016/j.actamat.2016.06.063,FCC + $\mu$ + $\sigma$,M,CR + A,0.2 - 6,,,T,25,646.7,1042,32.5,,,,,,,
J4-79,10.1016/j.actamat.2016.06.063,Co23Cr23Fe23Ni23Mo7,79,10.1016/j.actamat.2016.06.063,FCC + $\mu$ + $\sigma$,M,CR + A,0.2 - 3,,,T,25,683.7,1066.6,30.4,,,,,,,
J4-38,10.1117/1.JEI.26.4.043022,CoCrFeMnNi,38,10.1117/1.JEI.26.4.043022,FCC,,HF+A,13,,,T,25,243,558,50,,,,,,processing isn't technically as cast because it's forged. so hr ,"Further going back to the original paper, i disagree with their noted elongation. Plus the paper switched two of these (https://www.tandfonline.com/doi/full/10.1080/02670836.2017.1342367?scroll=top&needAccess=true) (ef = 58)"
J4-38,10.1117/1.JEI.26.4.043022,(CoCrFeMnNi)98C2,38,10.1117/1.JEI.26.4.043022,FCC + Carbide,,HF+A,8,,,T,25,446,723,15,,,,,,processing isn't technically as cast because it's forged. so hr ,"Further going back to the original paper, i disagree with their noted elongation Plus the paper switched two of these (https://www.tandfonline.com/doi/full/10.1080/02670836.2017.1342367?scroll=top&needAccess=true) (ef = 15.5)"
J4-38,10.1117/1.JEI.26.4.043022,CoCrFeMnNi,38,10.1117/1.JEI.26.4.043022,FCC,,HF+CR+A,7,,,T,25,249,621,41,,,,,,,ef = 47
J4-38,10.1117/1.JEI.26.4.043022,(CoCrFeMnNi)98C2,38,10.1117/1.JEI.26.4.043022,FCC + Carbide,,HF+CR+A,4,,,T,25,581,857,28,,,,,,fixed grain size ,ef = 35
J4-78,10.1016/j.actamat.2015.08.076,CoCrFeNi,78,10.1016/j.actamat.2015.08.076,FCC,S,A,,,,T,25,190,453,70,,,,,,,
J4-78,10.1016/j.actamat.2015.08.076,Al4Co24Cr24Fe24Ni24Ti2,78,10.1016/j.actamat.2015.08.076,FCC,S,A,289.7,,,T,25,210,503,70,,,,,,added grain size ,
J4-78,10.1016/j.actamat.2015.08.076,Al4Co24Cr24Fe24Ni24Ti2,78,10.1016/j.actamat.2015.08.076,FCC + L12 + L21,M,CR + A,15.7,,,T,25,645,1094,39,,,,,,added grain size ,
J4-78,10.1016/j.actamat.2015.08.076,Al4Co24Cr24Fe24Ni24Ti2,78,10.1016/j.actamat.2015.08.076,FCC + L12 + L21,M,CR + A,2.8,,,T,25,1005,1273,17,,,,,,added grain size ,
J4-88,10.1016/j.ultramic.2015.06.009,Al8Co17Cr17Cu8Fe17Ni33,88,10.1016/j.ultramic.2015.06.009,,,A,,,168 $\pm$ 5,,,,,,,,,,,,
J4-88,10.1016/j.ultramic.2015.06.009,Al8Co17Cr17Cu8Fe17Ni33,88,10.1016/j.ultramic.2015.06.009,,,A,,,328 $\pm$ 7,,,,,,,,,,,,
J4,10.1016/j.matchar.2018.06.036,Al8Co17Cr17Cu8Fe17Ni33,,This Article,,,A,,,206 $\pm$ 5,,,,,,,,,,,,
J4-88,10.1016/j.ultramic.2015.06.009,Al8Co17Cr14Cu8Fe17Ni35W0.1Mo0.1Ti1,88,10.1016/j.ultramic.2015.06.009,,,AC,,,231 $\pm$ 12,,,,,,,,,,,,
J4-88,10.1016/j.ultramic.2015.06.009,Al8Co17Cr14Cu8Fe17Ni35W0.1Mo0.1Ti1,88,10.1016/j.ultramic.2015.06.009,,,A,,,178 $\pm$ 7,,,,,,,,,,,,
J4-88,10.1016/j.ultramic.2015.06.009,Al8Co17Cr14Cu8Fe17Ni35W0.1Mo0.1Ti1,88,10.1016/j.ultramic.2015.06.009,,,A,,,343 $\pm$ 6,,,,,,,,,,,,
J4,10.1016/j.matchar.2018.06.036,Al8Co17Cr14Cu8Fe17Ni35W0.1Mo0.1Ti1,,This Article,,,A,,,171 $\pm$ 7,,,,,,,,,,,,
J4-30,10.1007/s11837-015-1484-7,Al10Co25Cr8Fe15Ni36Ti6,30,10.1007/s11837-015-1484-7,,,AC,,,343 $\pm$ 22,,,,,,,,,,,,
J4-30,10.1007/s11837-015-1484-7,Al10Co25Cr8Fe15Ni36Ti6,30,10.1007/s11837-015-1484-7,,,A,,,341 $\pm$ 12,,,,,,,,,,,,
J4-30,10.1007/s11837-015-1484-7,Al10Co25Cr8Fe15Ni36Ti6,30,10.1007/s11837-015-1484-7,FCC + L12 + C1,M,A,,,345 $\pm$ 14,T,25,568,786,12,,,,,,,
J4-30,10.1007/s11837-015-1484-7,Al10Co25Cr8Fe15Ni36Ti6,30,10.1007/s11837-015-1484-7,FCC + L12 + C1,M,A,,,345 $\pm$ 18,T,25,596,1039,20,,,,,,,
J4-30,10.1007/s11837-015-1484-7,Al10Co25Cr8Fe15Ni36Ti6,30,10.1007/s11837-015-1484-7,FCC + L12 + C1,M,A,,,345 $\pm$ 14,T,700,487,702,18,,,,,,,
J4-30,10.1007/s11837-015-1484-7,Al10Co25Cr8Fe15Ni36Ti6,30,10.1007/s11837-015-1484-7,FCC + L12 + C1,M,A,,,345 $\pm$ 18,T,700,486,624,11,,,,,,,
J4-75,10.1016/j.msea.2016.11.019,Al23Cr26Fe26Ni26,75,10.1016/j.msea.2016.11.019,BCC + B2,M,AC,,,,C,25,770,,37.1,,,,,,,
J4-75,10.1016/j.msea.2016.11.019,AlCrFeNi,75,10.1016/j.msea.2016.11.019,BCC + B2,M,AC,,,,C,25,843.2,,34.6,,,,,,,
J4-75,10.1016/j.msea.2016.11.019,Al27Cr24Fe24Ni24,75,10.1016/j.msea.2016.11.019,BCC + B2,M,AC,,,,C,25,1044,,27.1,,,,,,,
J4-75,10.1016/j.msea.2016.11.019,Al29Cr24Fe24Ni24,75,10.1016/j.msea.2016.11.019,BCC + B2,M,AC,,,,C,25,906.8,,31.4,,,,,,,
J4-75,10.1016/j.msea.2016.11.019,Al30Cr23Fe23Ni23,75,10.1016/j.msea.2016.11.019,BCC + B2,M,AC,,,,C,25,1122.8,,24.7,,,,,,,
J4-73,10.1016/j.matlet.2016.01.096,Al17Cr17Fe34Ni34,73,10.1016/j.matlet.2016.01.096,BCC + B2,M,AC,,,,C,25,,,17,,,,,,,
J4-109,10.1016/j.matdes.2013.12.048,AlCoCrFeNi,109,10.1016/j.matdes.2013.12.048,BCC + B2,M,AC,,,,C,25,,,22.7,,,,,,,
J4-53,10.1016/j.jmst.2014.09.011,Al18Cr18Fe17Ni33Ti9,53,10.1016/j.jmst.2014.09.011,BCC + B2 + L12,M,AC,,,,C,25,,,16.3,,,,,,,
J4-53,10.1016/j.jmst.2014.09.011,Al18Cr18Fe17Ni33Ti9,53,10.1016/j.jmst.2014.09.011,BCC + B2 + L12,M,A,,,,C,25,,,19.8,,,,,,,
J4-50,10.1007/s11665-015-1767-8,Cr22Fe22Ni22V11W22,50,10.1007/s11665-015-1767-8,FCC + BCC + $\sigma$,M,AC,,,,C,25,,,7.3,,,,,,,
J4-110,10.1016/j.msea.2015.09.089,Al17Cr17Cu17Fe17Ni33,110,10.1016/j.msea.2015.09.089,FCC + BCC + B2,M,AC,,,,C,25,,,30,,,,,,,
J4-96,10.1134/S0031918X17060084,CoCrFeMnNi,96,10.1134/S0031918X17060084,FCC,S,A,,,,C,25,230,,75,,,,,,,
J4-96,10.1134/S0031918X17060084,Co19Cr19Fe19Mn19Ni19V5,96,10.1134/S0031918X17060084,FCC + $\sigma$,M,A,,,,C,25,200,,75,,,,,,,
J4-96,10.1134/S0031918X17060084,Co18Cr18Fe18Mn18Ni18V9,96,10.1134/S0031918X17060084,FCC + $\sigma$,M,A,,,,C,25,620,,75,,,,,,,
J4-96,10.1134/S0031918X17060084,Co17Cr17Fe17Mn17Ni17V13,96,10.1134/S0031918X17060084,FCC + $\sigma$,M,A,,,,C,25,780,,8,,,,,,,
J4-96,10.1134/S0031918X17060084,CoCrFeMnNiV,96,10.1134/S0031918X17060084,FCC + $\sigma$,M,A,,,,C,25,1700,,1,,,,,,,
J4-111,10.1016/j.msea.2015.02.072,Al7Co23Cr23Fe23Ni23,111,10.1016/j.msea.2015.02.072,FCC,S,AC,,,,C,25,,,25,,,,,,,
J4-112,10.1016/j.jallcom.2013.12.210,CoCrFeNi,112,10.1016/j.jallcom.2013.12.210,FCC,S,AC,,,,C,25,,,83,,,,,,,
J4-74,10.1016/j.actamat.2016.11.016,Al17Cr17Co17Fe17Ni33.3,74,10.1016/j.actamat.2016.11.016,FCC + B2,M,AC,,,,T,25,545,1030,16.5,,,,,,the values given by the review are a little off from the values provided by the reference itself https://sci-hub.tw/https://doi.org/10.1016/j.actamat.2016.11.016,
[...]
J122,10.3390/e21020122,CoCrNiCuZn,,,FCC,S,SPS,500,5.26,,C,25,,,,,,,,,,
J122,10.3390/e21020122,CoCrNiCuZn,,,FCC,S,SPS,500,6.26,,C,25,,,,,,,,,,
J122,10.3390/e21020122,CoCrNiCuZn,,,FCC,S,SPS,500,7.84,,C,25,,,,,,,,,,
J122,10.3390/e21020122,CoCrNiCuZn,,,FCC,S,SPS,500,7.89,615,C,25,,,,,,,,,,
J123,10.3390/e21020114,HfNbTaTiZr,,,BCC,S,AC,500,,359,T,25,1155,1212,12.3,,59,,,,,
J123,10.3390/e21020114,NbTaTiZr,,,BCC,S,AC,500,,358,T,25,1144,1205,6.4,,98,,,,,
J123,10.3390/e21020114,NbTaTi,,,BCC,S,AC,500,,246,T,25,620,683,18.5,,143,,,,,
J123,10.3390/e21020114,TaTiZr,,,BCC + ,M,AC,500,,485,T,25,,284,0,,157,,,,changed to multiphase,
J123,10.3390/e21020114,NbTiZr,,,BCC,S,AC,500,,295,T,25,956,991,14.2,,88,,,,,
J123,10.3390/e21020114,Nb1.5TaTiZr0.5,,,BCC + ,M,AC,500,,294,T,25,822,852,0.33,,127,,,,changed to multiphase,
J123,10.3390/e21020114,Nb0.5TaTiZr1.5,,,BCC + ,M,AC,500,,489,T,25,,843,0,,93,,,,changed to multiphase,
J124,10.1016/j.msea.2018.12.020,AgAlNbTiZn,,,,M,A,,4.75,,,,,,,,,,,,changed to multiphase,
J124,10.1016/j.msea.2018.12.020,AgAlNbTiZn,,,,M,A,,5.78,,,,,,,,,,,,changed to multiphase,
J124,10.1016/j.msea.2018.12.020,AgAlNbTiZn,,,,M,A,,5.79,,,,,,,,,,,,changed to multiphase,
J124,10.1016/j.msea.2018.12.020,AgAlNbTiZn,,,,M,A,,5.51,,,,,,,,,,,,changed to multiphase,
J124,10.1016/j.msea.2018.12.020,AgAlNbTiZn,,,,M,A,,,,,,,,,,,,,,changed to multiphase,
J125,10.1155/2019/2157592,Fe31Mn28 Ni15Al24,,,,,AC,,,310,,,,,,,,,,,,
J125,10.1155/2019/2157592,Fe31Mn28 Ni15Al24Ti0.8,,,,,AC,,,330,,,,,,,,,,,,
J125,10.1155/2019/2157592,Fe31Mn28 Ni15Al24Ti3,,,,,AC,,,500,,,,,,,,,,,,
J125,10.1155/2019/2157592,Fe31Mn28 Ni15Al24,,,,,A,,,340,,,,,,,,,,,,
J125,10.1155/2019/2157592,Fe31Mn28 Ni15Al24Ti0.8,,,,,A,,,410,,,,,,,,,,,,
J125,10.1155/2019/2157592,Fe31Mn28 Ni15Al24Ti3,,,,,A,,,495,,,,,,,,,,,,
J125,10.1155/2019/2157592,Fe31Mn28 Ni15Al24,,,,,A,,,330,,,,,,,,,,,,
J125,10.1155/2019/2157592,Fe31Mn28 Ni15Al24Ti0.8,,,,,A,,,330,,,,,,,,,,,,
J125,10.1155/2019/2157592,Fe31Mn28 Ni15Al24Ti3,,,,,A,,,490,,,,,,,,,,,,
J126,10.1080/00325899.2019.1576389,AlCrFeNiCoC,,,FCC + BCC,M,SPS,,,,,,,,,,,,,,,
J128,10.1007/s11106-019-00012-z,CrFeNiCuTi,,,FCC + BCC,M,AC,,,,,,,,,,,,,,No Mechanical Data,
J128,10.1007/s11106-019-00012-z,CrFeNiCuTi,,,FCC + BCC,M,HF + A,,,,,,,,,,,,,,,
J128,10.1007/s11106-019-00012-z,CrFeNiCuTi,,,FCC + BCC,M,HF + A,,,,,,,,,,,,,,,
J128,10.1007/s11106-019-00012-z,CrFeNiCuTi,,,FCC + BCC,M,HF + A,,,,,,,,,,,,,,,
J129,10.1080/00325899.2018.1554834,CrMnFeCoNi,,,FCC  ,S,SPS,0.03,7.753,435 $\pm$ 25,C,25,1100,,47,,,,,,,
J130,10.1007/s11665-018-3822-8,CuCrFeNiAl0.5,,,FCC,S,AC,,,226,,,,,,,,,,,,
J130,10.1007/s11665-018-3822-8,CuCrFeNiAl0.5,,,FCC,S,CR + A,,,287,,,,,,,,,,,,
J131,10.3390/e21010015,HfMoNbTaTiZr,,,BCC,S,AC,,,,C,25,1512,,12,,,,,,,
J131,10.3390/e21010015,HfMoTaTiZr,,,BCC,S,AC,,,,C,25,1600,,4,,,,,,,
J131,10.3390/e21010015,HfMoNbTiZr,,,BCC,S,AC,,,,C,25,1351,,20,,,,,,,
J131,10.3390/e21010015,HfMoNbTaZr,,,BCC,S,AC,,,,C,25,1524,,16,,,,,,,
J131,10.3390/e21010015,HfMoNbTaTi ,,,BCC,S,AC,,,,C,25,1369,,27,,,,,,,
J131,10.3390/e21010015,HfMoNbTaTiZr,,,BCC,S,AC,,,,C,800,1007,,,,,,,,,
J131,10.3390/e21010015,HfMoTaTiZr,,,BCC,S,AC,,,,C,800,1045,,,,,,,,,
J131,10.3390/e21010015,HfMoNbTiZr,,,BCC,S,AC,,,,C,800,829,,,,,,,,,
J131,10.3390/e21010015,HfMoNbTaZr,,,BCC,S,AC,,,,C,800,1005,,,,,,,,,
J131,10.3390/e21010015,HfMoNbTaTi ,,,BCC,S,AC,,,,C,800,822,,,,,,,,,
J131,10.3390/e21010015,HfMoNbTaTiZr,,,BCC,S,AC,,,,C,1000,814,,,,,,,,,
J131,10.3390/e21010015,HfMoTaTiZr,,,BCC,S,AC,,,,C,1000,855,,,,,,,,,
J131,10.3390/e21010015,HfMoNbTiZr,,,BCC,S,AC,,,,C,1000,721,,,,,,,,,
J131,10.3390/e21010015,HfMoNbTaZr,,,BCC,S,AC,,,,C,1000,927,,,,,,,,,
J131,10.3390/e21010015,HfMoNbTaTi ,,,BCC,S,AC,,,,C,1000,778,,,,,,,,,
J131,10.3390/e21010015,HfMoNbTaTiZr,,,BCC,S,AC,,,,C,1200,556,,,,,,,,,
J131,10.3390/e21010015,HfMoTaTiZr,,,BCC,S,AC,,,,C,1200,404,,,,,,,,,
J131,10.3390/e21010015,HfMoNbTiZr,,,BCC,S,AC,,,,C,1200,301,,,,,,,,,
J131,10.3390/e21010015,HfMoNbTaZr,,,BCC,S,AC,,,,C,1200,694,,,,,,,,,
J131,10.3390/e21010015,HfMoNbTaTi ,,,BCC,S,AC,,,,C,1200,699,,,,,,,,,
J131,10.3390/e21010015,HfMoNbTaZr,,,BCC,S,AC,,,,C,1400,278,,,,,,,,,
J131,10.3390/e21010015,HfMoNbTaTi ,,,BCC,S,AC,,,,C,1400,367,,,,,,,,,
J132,10.3390/coatings9010016,CoCrFeNi,,,FCC,S,VHP,0.0276,,,,,,,,,,,,,,
J132,10.3390/coatings9010016,(CoCrFeNi)0.9(WC)0.1,,,FCC,S,VHP,0.0189,7.24 $\pm$ 0.02,475,,,,,,,,,,,,
J132,10.3390/coatings9010016,(CoCrFeNi)0.7(WC)0.3,,,FCC,S,VHP,0.0182,8.39 $\pm$ 0.03,531,,,,,,,,,,,,
J133,10.5755/j01.ms.25.3.19452,Al0.4FeCrCo1.5NiTi0.3,,,FCC + BCC,M,SPS,,,515 $\pm$ 16,C,25,2012 $\pm$ 20,,,17.52 $\pm$ 0.5,,,,,,
J134,10.1007/s11661-018-4646-8,HfNbTaTiZr,,,BCC,S,AC,,,,T,25,1438,1218,5,,91.5,,,,Hot Isostatically Pressed,
J134,10.1007/s11661-018-4646-8,HfNbTaTiZr,,,BCC,S,HIP + CR + A,,,,T,25,1159,1127,4.7,,99.2,,,,these are true strains but it's close enough ,
J134,10.1007/s11661-018-4646-8,HfNbTaTiZr,,,BCC,S,HIP + CR + A,,,,T,25,1134,1134,7.6,,109.1,,,,,
J134,10.1007/s11661-018-4646-8,HfNbTaTiZr,,,BCC,S,HIP + CR + A,,,,T,25,1094,1066,6,,105.3,,,,,
J134,10.1007/s11661-018-4646-8,HfNbTaTiZr,,,BCC,S,HIP + CR + A,,,,T,25,1071,964,4.6,,91.6,,,,,
J134,10.1007/s11661-018-4646-8,HfNbTaTiZr,,,BCC,S,HIP + CR + A,24.4,,,T,25,1107,977,13.9,,92.6,,,,,
J134,10.1007/s11661-018-4646-8,HfNbTaTiZr,,,BCC,S,HIP + CR + A,31.3,,,T,25,1115,830,18.5,,92.6,,,,,
J134,10.1007/s11661-018-4646-8,HfNbTaTiZr,,,BCC,S,HIP + CR + A,38.4,,,T,25,1114,935,12.2,,101.3,,,,,
J134,10.1007/s11661-018-4646-8,HfNbTaTiZr,,,BCC,S,HIP + CR + A,50.1,,,,,,,,,,,,,,
J134,10.1007/s11661-018-4646-8,HfNbTaTiZr,,,BCC,S,HIP + CR + A,21.9,,,,,,,,,,,,,,
J134,10.1007/s11661-018-4646-8,HfNbTaTiZr,,,BCC,S,HIP + CR + A,75.5,,,,,,,,,,,,,,
J135,10.1080/02670836.2018.1446267,AlNbTiZr,,,B2,S,AC,250,5.85,422 $\pm$ 15,C,25,1509,,8.6,,,,,,,
J135,10.1080/02670836.2018.1446267,AlNbTiZr,,,B2 + Zr5Al3,M,A,,,418 $\pm$ 15,C,25,1579,,17.8,,,,,,,
J135-18,10.1016/j.matlet.2015.08.099,AlNbTiVZr0.5,,,,,,,5.64,,C,25,1480,,>50,,,,,,,
J135-19,10.1179/1743284715Y.0000000032,AlNbTiZr,,,,,,,5.79,539.6,C,25,1080,,5.9,,,,,,,
J135-24,10.1016/j.actamat.2012.11.032,NbTiVZr,,,,,,,6.52,335,C,25,1105,,>50,,,,,,,
J135-24,10.1016/j.actamat.2012.11.032,CrNbTiZr,,,,,,,6.67,418,C,25,1260,,6,,,,,,,
new_ref_2,10.1002/maco.201709833,AlCrFeNiMo0.5,,,BCC+B2,M,AC,,,623.7,C,25,1914.1,4023.6,27.9,,,,,,,
new_ref_2,10.1002/maco.201709833,AlCrFeNiMo0.5Ti0.25,,,BCC+B2,M,AC,,,712,C,25,2161.7,3641.5,14.3,,,,,,,
new_ref_2,10.1002/maco.201709833,AlCrFeNiMo0.5Ti0.4,,,BCC+B2,M,AC,,,731.9,C,25,2185.1,3673.4,14.8,,,,,,,
new_ref_2,10.1002/maco.201709833,AlCrFeNiMo0.5Ti0.5,,,BCC+B2,M,AC,,,751.7,C,25,2228.7,3166.2,10.4,,,,,,,
new_ref_2,10.1002/maco.201709833,AlCrFeNiMo0.5Ti0.6,,,BCC+B2,M,AC,,,756.1,C,25,1314.5,1314.5,,,,,,,,
new_ref_2,10.1002/maco.201709833,AlCrFeNiMo0.5Ti0.75,,,BCC+B2,M,AC,,,766.2,C,25,618.8,618.8,,,,,,,,
new_ref_4,10.1016/j.matdes.2018.06.003,AlCrMoNb,,,Laves (C14)+A15,M,A,,,,,,,,,,,,,,,
new_ref_4,10.1016/j.matdes.2018.06.003,AlCrMoNb,,,Laves (C14)+A15,M,AC,,,,,,,,,,,,,,,
new_ref_4,10.1016/j.matdes.2018.06.003,AlHfNbTi,,,B2,S,A,,,,,,,,,,,,,,,
new_ref_4,10.1016/j.matdes.2018.06.003,AlHfNbTi,,,B2,S,AC,,,,,,,,,,,,,,,
new_ref_4,10.1016/j.matdes.2018.06.003,AlHfTaTi,,,B2,S,A,,,,,,,,,,,,,,,
new_ref_4,10.1016/j.matdes.2018.06.003,AlHfTaTi,,,B2,S,AC,,,,,,,,,,,,,,,
new_ref_4,10.1016/j.matdes.2018.06.003,AlMoNbTi,,,BCC+A15,M,A,,,,,,,,,,,,,,,
new_ref_4,10.1016/j.matdes.2018.06.003,AlMoNbTi,,,BCC,S,AC,,,509 $\pm$ 18,,,,,,,,,,,,
new_ref_4,10.1016/j.matdes.2018.06.003,AlNbTaTi,,,BCC+A15,M,A,,,,,,,,,,,,,,,
new_ref_4,10.1016/j.matdes.2018.06.003,AlNbTaTi,,,BCC,S,AC,,,458 $\pm$ 10,,,,,,,,,,,,
new_ref_4,10.1016/j.matdes.2018.06.003,CrMoTaTi,,,BCC,S,A,,,555 $\pm$ 24,,,,,,,,,,,,
new_ref_4,10.1016/j.matdes.2018.06.003,CrMoTaTi,,,BCC,S,AC,,,539 $\pm$ 32,,,,,,,,,,,,
new_ref_4,10.1016/j.matdes.2018.06.003,CrNbTaTi,,,BCC+Laves (C15),M,A,,,,,,,,,,,,,,,
new_ref_4,10.1016/j.matdes.2018.06.003,CrNbTaTi,,,BCC,S,AC,,,495 $\pm$ 26,,,,,,,,,,,,
new_ref_4,10.1016/j.matdes.2018.06.003,CrNbTiW,,,BCC+Laves (C15),M,A,,,630 $\pm$ 28,,,,,,,,,,,,
new_ref_4,10.1016/j.matdes.2018.06.003,CrNbTiW,,,BCC,S,AC,,,630 $\pm$ 24,,,,,,,,,,,,
new_ref_4,10.1016/j.matdes.2018.06.003,HfNbTaTi,,,BCC,S,A,,,280 $\pm$ 10,,,,,,,,,,,,
new_ref_4,10.1016/j.matdes.2018.06.003,HfNbTaTi,,,BCC,S,AC,,,270 $\pm$ 5,,,,,,,,,,,,
new_ref_4,10.1016/j.matdes.2018.06.003,MoNbTaTiW,,,BCC,S,A,,,482 $\pm$ 10,,,,,,,,,,,,
new_ref_4,10.1016/j.matdes.2018.06.003,MoNbTaTiW,,,BCC,S,AC,,,446 $\pm$ 32,,,,,,,,,,,,
new_ref_4,10.1016/j.matdes.2018.06.003,MoNbTaTi,,,BCC,S,A,,,407 $\pm$ 17,,,,,,,,,,,,
new_ref_4,10.1016/j.matdes.2018.06.003,MoNbTaTi,,,BCC,S,AC,,,431 $\pm$ 7,,,,,,,,,,,,