Folder: MPEA_dataset/stats_and_tables

Note: README.md
# Expanded dataset of mechanical properties and observed phases of multi-principal element alloys

1. [2018 data](/2018_data/2018_data.csv)
This file was generated from previous reviews ([Gorsse2018](https://doi.org/10.1016/j.dib.2018.11.111), [Couzinine2018](https://doi.org/10.1016/j.dib.2018.10.071)).

2. [2019 data](/2019_data/2019_data.csv)
This file was generated through the extraction of data from references in [wos_query_refs.bib](/2019_data/wos_query_refs.bib).

3. combine_and_process.ipynb generates MPEA_dataset.csv

File: compositions.csv
Alloy name,Ag,Al,B,C,Ca,Co,Cr,Cu,Fe,Ga,Hf,Li,Mg,Mn,Mo,Nb,Nd,Ni,Pd,Re,Sc,Si,Sn,Ta,Ti,V,W,Y,Zn,Zr
Al0.25 Co1 Fe1 Ni1,,0.077,,,,0.308,,,0.308,,,,,,,,,0.308,,,,,,,,,,,,
Al0.5 Co1 Fe1 Ni1,,0.143,,,,0.286,,,0.286,,,,,,,,,0.286,,,,,,,,,,,,
Al0.75 Co1 Fe1 Ni1,,0.2,,,,0.267,,,0.267,,,,,,,,,0.267,,,,,,,,,,,,
Al1 Co1 Fe1 Ni1,,0.25,,,,0.25,,,0.25,,,,,,,,,0.25,,,,,,,,,,,,
Co1 Fe1 Ni1,,,,,,0.333,,,0.333,,,,,,,,,0.333,,,,,,,,,,,,
Co1 Fe1 Ni1 Si0.25,,,,,,0.308,,,0.308,,,,,,,,,0.308,,,,0.077,,,,,,,,
Co1 Fe1 Ni1 Si0.5,,,,,,0.286,,,0.286,,,,,,,,,0.286,,,,0.143,,,,,,,,
Co1 Fe1 Ni1 Si0.75,,,,,,0.267,,,0.267,,,,,,,,,0.267,,,,0.2,,,,,,,,
Co1 Cr1 Fe1 Ni1,,,,,,0.25,0.25,,0.25,,,,,,,,,0.25,,,,,,,,,,,,
Co1 Cr1 Mn1 Ni1,,,,,,0.25,0.25,,,,,,,0.25,,,,0.25,,,,,,,,,,,,
Co1 Cr1 Ni1,,,,,,0.333,0.333,,,,,,,,,,,0.333,,,,,,,,,,,,
Co1 Fe1 Mn1 Ni1,,,,,,0.25,,,0.25,,,,,0.25,,,,0.25,,,,,,,,,,,,
Co1 Mn1 Ni1,,,,,,0.333,,,,,,,,0.333,,,,0.333,,,,,,,,,,,,
Fe1 Mn1 Ni1,,,,,,,,,0.333,,,,,0.333,,,,0.333,,,,,,,,,,,,
Co1 Cr1 Fe1 Nb0.103 Ni1,,,,,,0.244,0.244,,0.244,,,,,,,0.025,,0.244,,,,,,,,,,,,
Co1 Cr1 Fe1 Nb0.155 Ni1,,,,,,0.241,0.241,,0.241,,,,,,,0.037,,0.241,,,,,,,,,,,,
Co1 Cr1 Fe1 Nb0.206 Ni1,,,,,,0.238,0.238,,0.238,,,,,,,0.049,,0.238,,,,,,,,,,,,
Co1 Cr1 Fe1 Nb0.309 Ni1,,,,,,0.232,0.232,,0.232,,,,,,,0.072,,0.232,,,,,,,,,,,,
Co1 Cr1 Fe1 Nb0.412 Ni1,,,,,,0.227,0.227,,0.227,,,,,,,0.093,,0.227,,,,,,,,,,,,
Al0.25 Co1 Cr1 Fe1 Ni1,,0.059,,,,0.235,0.235,,0.235,,,,,,,,,0.235,,,,,,,,,,,,
Al0.375 Co1 Cr1 Fe1 Ni1,,0.086,,,,0.229,0.229,,0.229,,,,,,,,,0.229,,,,,,,,,,,,
Al0.5 Co1 Cr1 Fe1 Ni1,,0.111,,,,0.222,0.222,,0.222,,,,,,,,,0.222,,,,,,,,,,,,
Al0.75 Co1 Cr1 Fe1 Ni1,,0.158,,,,0.211,0.211,,0.211,,,,,,,,,0.211,,,,,,,,,,,,
Al0.875 Co1 Cr1 Fe1 Ni1,,0.179,,,,0.205,0.205,,0.205,,,,,,,,,0.205,,,,,,,,,,,,
Al1 Co0.8 Cr0.8 Fe0.8 Ni0.8,,0.238,,,,0.19,0.19,,0.19,,,,,,,,,0.19,,,,,,,,,,,,
Al1 Co0.667 Cr0.667 Fe0.667 Ni0.667,,0.273,,,,0.182,0.182,,0.182,,,,,,,,,0.182,,,,,,,,,,,,
Al1 Co0.5 Cr0.5 Fe0.5 Ni0.5,,0.333,,,,0.167,0.167,,0.167,,,,,,,,,0.167,,,,,,,,,,,,
Al1 Co1 Cr1 Fe1 Ni1,,0.2,,,,0.2,0.2,,0.2,,,,,,,,,0.2,,,,,,,,,,,,
Al0.5 Co1 Cr1 Fe1 Mo0.5 Ni1,,0.1,,,,0.2,0.2,,0.2,,,,,,0.1,,,0.2,,,,,,,,,,,,
Al1 Co0.667 Cr0.667 Fe0.667 Mo0.333 Ni0.667,,0.25,,,,0.167,0.167,,0.167,,,,,,0.083,,,0.167,,,,,,,,,,,,
Al1 Co0.5 Cr0.5 Fe0.5 Mo0.25 Ni0.5,,0.308,,,,0.154,0.154,,0.154,,,,,,0.077,,,0.154,,,,,,,,,,,,
Al1 Co1 Cr1 Fe1 Mo0.5 Ni1,,0.182,,,,0.182,0.182,,0.182,,,,,,0.091,,,0.182,,,,,,,,,,,,
Co1 Cr1 Fe1 Mo0.5 Ni1,,,,,,0.222,0.222,,0.222,,,,,,0.111,,,0.222,,,,,,,,,,,,
Al0.5 Co1 Cr1 Fe1 Ni1 Ti1,,0.091,,,,0.182,0.182,,0.182,,,,,,,,,0.182,,,,,,,0.182,,,,,
Al1 Co0.667 Cr0.667 Fe0.667 Ni0.667 Ti0.667,,0.231,,,,0.154,0.154,,0.154,,,,,,,,,0.154,,,,,,,0.154,,,,,
Al1 Co0.5 Cr0.5 Fe0.5 Ni0.5 Ti0.5,,0.286,,,,0.143,0.143,,0.143,,,,,,,,,0.143,,,,,,,0.143,,,,,
Al1 Co1 Cr1 Fe1 Ni1 Ti1,,0.167,,,,0.167,0.167,,0.167,,,,,,,,,0.167,,,,,,,0.167,,,,,
Co1 Cr1 Fe1 Ni1 Ti1,,,,,,0.2,0.2,,0.2,,,,,,,,,0.2,,,,,,,0.2,,,,,
Al0.133 Co1 Cr0.667 Fe0.667 Ni1 Ti0.667,,0.032,,,,0.242,0.161,,0.161,,,,,,,,,0.242,,,,,,,0.161,,,,,
Al0.133 Co1 Cr0.667 Fe0.667 Ni1 Ti0.333,,0.035,,,,0.263,0.176,,0.176,,,,,,,,,0.263,,,,,,,0.088,,,,,
Co1 Cr0.667 Fe0.667 Ni1 Ti0.667,,,,,,0.25,0.167,,0.167,,,,,,,,,0.25,,,,,,,0.167,,,,,
Co1 Cr0.667 Fe0.667 Ni1 Ti0.333,,,,,,0.273,0.182,,0.182,,,,,,,,,0.273,,,,,,,0.091,,,,,
Al0.7 Co0.3 Cr1 Fe1 Ni1,,0.175,,,,0.075,0.25,,0.25,,,,,,,,,0.25,,,,,,,,,,,,
Al1 Co0.4 Cr0.4 Fe0.4 Ni0.4,,0.385,,,,0.154,0.154,,0.154,,,,,,,,,0.154,,,,,,,,,,,,
Al1 Co0.333 Cr0.333 Fe0.333 Ni0.333,,0.429,,,,0.143,0.143,,0.143,,,,,,,,,0.143,,,,,,,,,,,,
Al1 Cr1 Cu1 Fe1 Ni1,,0.2,,,,,0.2,0.2,0.2,,,,,,,,,0.2,,,,,,,,,,,,
Co1 Cr1 Cu1 Fe1 Ni1,,,,,,0.2,0.2,0.2,0.2,,,,,,,,,0.2,,,,,,,,,,,,
Cr1 Cu1 Fe1 Mn1 Ni1,,,,,,,0.2,0.2,0.2,,,,,0.2,,,,0.2,,,,,,,,,,,,
Cr1 Cu1 Fe1 Mo1 Ni1,,,,,,,0.2,0.2,0.2,,,,,,0.2,,,0.2,,,,,,,,,,,,
Al1 C0.1 Co1 Cr1 Fe1 Ni1,,0.196,,0.02,,0.196,0.196,,0.196,,,,,,,,,0.196,,,,,,,,,,,,
Al1 C0.2 Co1 Cr1 Fe1 Ni1,,0.192,,0.038,,0.192,0.192,,0.192,,,,,,,,,0.192,,,,,,,,,,,,
Al1 C0.3 Co1 Cr1 Fe1 Ni1,,0.189,,0.057,,0.189,0.189,,0.189,,,,,,,,,0.189,,,,,,,,,,,,
Al1 C0.4 Co1 Cr1 Fe1 Ni1,,0.185,,0.074,,0.185,0.185,,0.185,,,,,,,,,0.185,,,,,,,,,,,,
Al1 C0.5 Co1 Cr1 Fe1 Ni1,,0.182,,0.091,,0.182,0.182,,0.182,,,,,,,,,0.182,,,,,,,,,,,,
Al0.667 C1 Co0.667 Cr0.667 Fe0.667 Ni0.667,,0.154,,0.231,,0.154,0.154,,0.154,,,,,,,,,0.154,,,,,,,,,,,,
Al1 C1 Co1 Cr1 Fe1 Ni1,,0.167,,0.167,,0.167,0.167,,0.167,,,,,,,,,0.167,,,,,,,,,,,,
Al1 Co1 Cr1 Fe1 Mo0.1 Ni1,,0.196,,,,0.196,0.196,,0.196,,,,,,0.02,,,0.196,,,,,,,,,,,,
Al1 Co1 Cr1 Fe1 Mo0.2 Ni1,,0.192,,,,0.192,0.192,,0.192,,,,,,0.038,,,0.192,,,,,,,,,,,,
Al1 Co1 Cr1 Fe1 Mo0.3 Ni1,,0.189,,,,0.189,0.189,,0.189,,,,,,0.057,,,0.189,,,,,,,,,,,,
Al1 Co1 Cr1 Fe1 Mo0.4 Ni1,,0.185,,,,0.185,0.185,,0.185,,,,,,0.074,,,0.185,,,,,,,,,,,,
Al1 Co1 Cr1 Fe1 Nb0.1 Ni1,,0.196,,,,0.196,0.196,,0.196,,,,,,,0.02,,0.196,,,,,,,,,,,,
Al1 Co1 Cr1 Fe1 Nb0.25 Ni1,,0.19,,,,0.19,0.19,,0.19,,,,,,,0.048,,0.19,,,,,,,,,,,,
Al1 Co1 Cr1 Fe1 Nb0.5 Ni1,,0.182,,,,0.182,0.182,,0.182,,,,,,,0.091,,0.182,,,,,,,,,,,,
Al1 Co1 Cr1 Fe1 Nb0.75 Ni1,,0.174,,,,0.174,0.174,,0.174,,,,,,,0.13,,0.174,,,,,,,,,,,,
Al0.8 Co1 Cr1 Cu1 Fe1 Ni1,,0.138,,,,0.172,0.172,0.172,0.172,,,,,,,,,0.172,,,,,,,,,,,,
Al1 Co0.5 Cr1 Fe1 Mo0.5 Ni1,,0.2,,,,0.1,0.2,,0.2,,,,,,0.1,,,0.2,,,,,,,,,,,,
Al0.667 Co1 Cr0.667 Fe0.667 Mo0.333 Ni0.667,,0.167,,,,0.25,0.167,,0.167,,,,,,0.083,,,0.167,,,,,,,,,,,,
Al0.5 Co1 Cr0.5 Fe0.5 Mo0.25 Ni0.5,,0.154,,,,0.308,0.154,,0.154,,,,,,0.077,,,0.154,,,,,,,,,,,,
Al1 Co1 Cr1 Fe0.6 Mo0.5 Ni1,,0.196,,,,0.196,0.196,,0.118,,,,,,0.098,,,0.196,,,,,,,,,,,,
Al0.667 Co0.667 Cr0.667 Fe1 Mo0.333 Ni0.667,,0.167,,,,0.167,0.167,,0.25,,,,,,0.083,,,0.167,,,,,,,,,,,,
Al0.5 Co0.5 Cr0.5 Fe1 Mo0.25 Ni0.5,,0.154,,,,0.154,0.154,,0.308,,,,,,0.077,,,0.154,,,,,,,,,,,,
Al1 Co1 Cr1 Fe1 Mo0.5,,0.222,,,,0.222,0.222,,0.222,,,,,,0.111,,,,,,,,,,,,,,,
Al1 Co1 Cr1 Fe1 Mo0.5 Ni0.5,,0.2,,,,0.2,0.2,,0.2,,,,,,0.1,,,0.1,,,,,,,,,,,,
Al0.667 Co0.667 Cr0.667 Fe0.667 Mo0.333 Ni1,,0.167,,,,0.167,0.167,,0.167,,,,,,0.083,,,0.25,,,,,,,,,,,,
Al0.5 Co0.5 Cr0.5 Fe0.5 Mo0.25 Ni1,,0.154,,,,0.154,0.154,,0.154,,,,,,0.077,,,0.308,,,,,,,,,,,,
Al1 Co1 Cr1 Fe1 Ni1 Si1,,0.167,,,,0.167,0.167,,0.167,,,,,,,,,0.167,,,,0.167,,,,,,,,
Al1 Co1 Cr1 Fe1 Ni1 Si0.2,,0.192,,,,0.192,0.192,,0.192,,,,,,,,,0.192,,,,0.038,,,,,,,,
Al1 Co1 Cr1 Fe1 Ni1 Si0.4,,0.185,,,,0.185,0.185,,0.185,,,,,,,,,0.185,,,,0.074,,,,,,,,
Al1 Co1 Cr1 Fe1 Ni1 Si0.6,,0.179,,,,0.179,0.179,,0.179,,,,,,,,,0.179,,,,0.107,,,,,,,,
Al1 Co1 Cr1 Fe1 Ni1 Si0.8,,0.172,,,,0.172,0.172,,0.172,,,,,,,,,0.172,,,,0.138,,,,,,,,
Al0.25 Co1 Cr1 Cu0.5 Fe1 Ni1 Ti0.5,,0.048,,,,0.19,0.19,0.095,0.19,,,,,,,,,0.19,,,,,,,0.095,,,,,
Al0.25 Co1 Cr1 Cu0.75 Fe1 Ni1 Ti0.5,,0.045,,,,0.182,0.182,0.136,0.182,,,,,,,,,0.182,,,,,,,0.091,,,,,
Al0.5 Co1 Cr1 Cu0.5 Fe1 Ni1 Ti0.5,,0.091,,,,0.182,0.182,0.091,0.182,,,,,,,,,0.182,,,,,,,0.091,,,,,
Al0.75 Co1 Cr1 Cu0.25 Fe1 Ni1 Ti0.5,,0.136,,,,0.182,0.182,0.045,0.182,,,,,,,,,0.182,,,,,,,0.091,,,,,
Co1 Cr1 Cu1 Fe1 Ni1 Ti0.5,,,,,,0.182,0.182,0.182,0.182,,,,,,,,,0.182,,,,,,,0.091,,,,,
Al1 Co1 Cr1 Fe1 Ni1 Ti0.5,,0.182,,,,0.182,0.182,,0.182,,,,,,,,,0.182,,,,,,,0.091,,,,,
Al0.667 Co0.667 Cr0.667 Fe0.667 Ni0.667 Ti1,,0.154,,,,0.154,0.154,,0.154,,,,,,,,,0.154,,,,,,,0.231,,,,,
Al1 Co1 Cr1 Fe1 Ni1 Ti1 V1 Zr1,,0.125,,,,0.125,0.125,,0.125,,,,,,,,,0.125,,,,,,,0.125,0.125,,,,0.125
[...]
Co0.086 Cu0.086 Fe0.086 Nb1 Ni0.086,,,,,,0.064,,0.064,0.064,,,,,,,0.744,,0.064,,,,,,,,,,,,
Co0.067 Cu0.067 Fe0.067 Nb1 Ni0.067,,,,,,0.053,,0.053,0.053,,,,,,,0.789,,0.053,,,,,,,,,,,,
B0.006 Co0.201 Cr0.201 Fe1 Mn0.604,,,0.003,,,0.1,0.1,,0.497,,,,,0.3,,,,,,,,,,,,,,,,
B0.012 Co0.202 Cr0.202 Fe1 Mn0.607,,,0.006,,,0.1,0.1,,0.494,,,,,0.3,,,,,,,,,,,,,,,,
B0.035 Co0.207 Cr0.207 Fe1 Mn0.621,,,0.017,,,0.1,0.1,,0.483,,,,,0.3,,,,,,,,,,,,,,,,
Al0.186 Cr0.149 Fe1 Mn0.861 Ni0.28,,0.075,,,,,0.06,,0.404,,,,,0.348,,,,0.113,,,,,,,,,,,,
Hf1 Ti1 Zr1,,,,,,,,,,,0.333,,,,,,,,,,,,,,0.333,,,,,0.333
Hf1 Sc1 Ti1 Zr1,,,,,,,,,,,0.25,,,,,,,,,,0.25,,,,0.25,,,,,0.25
Hf1 Ti1 Y1 Zr1,,,,,,,,,,,0.25,,,,,,,,,,,,,,0.25,,,0.25,,0.25
Hf1 Sc1 Ti1 Y1 Zr1,,,,,,,,,,,0.2,,,,,,,,,,0.2,,,,0.2,,,0.2,,0.2
Co1 Cr1 Fe1 Ga1 Ni1,,,,,,0.2,0.2,,0.2,0.2,,,,,,,,0.2,,,,,,,,,,,,
Al0.562 Co0.938 Cr0.312 Fe0.312 Ni1,,0.18,,,,0.3,0.1,,0.1,,,,,,,,,0.32,,,,,,,,,,,,
Al0.581 Co0.968 Cr0.323 Fe0.323 Mo0.032 Ni1,,0.18,,,,0.3,0.1,,0.1,,,,,,0.01,,,0.31,,,,,,,,,,,,
Al0.6 Co1 Cr0.333 Fe0.333 Mo0.067 Ni1,,0.18,,,,0.3,0.1,,0.1,,,,,,0.02,,,0.3,,,,,,,,,,,,
Al0.6 Co1 Cr0.333 Fe0.333 Mo0.1 Ni0.967,,0.18,,,,0.3,0.1,,0.1,,,,,,0.03,,,0.29,,,,,,,,,,,,
Co1 Cr1 Fe1 Mo0.149 Ni1,,,,,,0.241,0.241,,0.241,,,,,,0.036,,,0.241,,,,,,,,,,,,
Co1 Cr1 Cu1 Fe1 Ni1 V0.042,,,,,,0.198,0.198,0.198,0.198,,,,,,,,,0.198,,,,,,,,0.008,,,,
Co1 Cr1 Cu1 Fe1 Ni1 V0.087,,,,,,0.197,0.197,0.197,0.197,,,,,,,,,0.197,,,,,,,,0.017,,,,
Co1 Cr1 Cu1 Fe1 Ni1 V0.136,,,,,,0.195,0.195,0.195,0.195,,,,,,,,,0.195,,,,,,,,0.026,,,,
Co1 Cr1 Cu1 Fe1 Ni1 V0.19,,,,,,0.193,0.193,0.193,0.193,,,,,,,,,0.193,,,,,,,,0.037,,,,
Co1 Cr1 Cu1 Ni1 Zn1,,,,,,0.2,0.2,0.2,,,,,,,,,,0.2,,,,,,,,,,,0.2,
Nb1 Ta1 Ti1 Zr1,,,,,,,,,,,,,,,,0.25,,,,,,,,0.25,0.25,,,,,0.25
Ta1 Ti1 Zr1,,,,,,,,,,,,,,,,,,,,,,,,0.333,0.333,,,,,0.333
Nb1 Ta0.667 Ti0.667 Zr0.333,,,,,,,,,,,,,,,,0.375,,,,,,,,0.25,0.25,,,,,0.125
Nb0.333 Ta0.667 Ti0.667 Zr1,,,,,,,,,,,,,,,,0.125,,,,,,,,0.25,0.25,,,,,0.375
Ag1 Al1 Nb1 Ti1 Zn1,0.2,0.2,,,,,,,,,,,,,,0.2,,,,,,,,,0.2,,,,0.2,
Al0.774 Fe1 Mn0.903 Ni0.484,,0.245,,,,,,,0.316,,,,,0.286,,,,0.153,,,,,,,,,,,,
Al0.774 Fe1 Mn0.903 Ni0.484 Ti0.026,,0.243,,,,,,,0.314,,,,,0.283,,,,0.152,,,,,,,0.008,,,,,
Al0.774 Fe1 Mn0.903 Ni0.484 Ti0.097,,0.238,,,,,,,0.307,,,,,0.277,,,,0.149,,,,,,,0.03,,,,,
Cr1 Cu1 Fe1 Ni1 Ti1,,,,,,,0.2,0.2,0.2,,,,,,,,,0.2,,,,,,,0.2,,,,,
Al0.5 Cr1 Cu1 Fe1 Ni1,,0.111,,,,,0.222,0.222,0.222,,,,,,,,,0.222,,,,,,,,,,,,
Hf1 Mo1 Nb1 Ta1 Zr1,,,,,,,,,,,0.2,,,,0.2,0.2,,,,,,,,0.2,,,,,,0.2
Hf1 Mo1 Nb1 Ta1 Ti1,,,,,,,,,,,0.2,,,,0.2,0.2,,,,,,,,0.2,0.2,,,,,
C0.111 Co1 Cr1 Fe1 Ni1 W0.111,,,,0.026,,0.237,0.237,,0.237,,,,,,,,,0.237,,,,,,,,,0.026,,,
C0.429 Co1 Cr1 Fe1 Ni1 W0.429,,,,0.088,,0.206,0.206,,0.206,,,,,,,,,0.206,,,,,,,,,0.088,,,
Al0.267 Co1 Cr0.667 Fe0.667 Ni0.667 Ti0.2,,0.077,,,,0.288,0.192,,0.192,,,,,,,,,0.192,,,,,,,0.058,,,,,
Al1 Nb1 Ti1 Zr1,,0.25,,,,,,,,,,,,,,0.25,,,,,,,,,0.25,,,,,0.25
Al1 Cr1 Fe1 Mo0.5 Ni1 Ti0.25,,0.211,,,,,0.211,,0.211,,,,,,0.105,,,0.211,,,,,,,0.053,,,,,
Al1 Cr1 Fe1 Mo0.5 Ni1 Ti0.4,,0.204,,,,,0.204,,0.204,,,,,,0.102,,,0.204,,,,,,,0.082,,,,,
Al1 Cr1 Fe1 Mo0.5 Ni1 Ti0.5,,0.2,,,,,0.2,,0.2,,,,,,0.1,,,0.2,,,,,,,0.1,,,,,
Al1 Cr1 Fe1 Mo0.5 Ni1 Ti0.6,,0.196,,,,,0.196,,0.196,,,,,,0.098,,,0.196,,,,,,,0.118,,,,,
Al1 Cr1 Fe1 Mo0.5 Ni1 Ti0.75,,0.19,,,,,0.19,,0.19,,,,,,0.095,,,0.19,,,,,,,0.143,,,,,
Al1 Cr1 Mo1 Nb1,,0.25,,,,,0.25,,,,,,,,0.25,0.25,,,,,,,,,,,,,,
Al1 Hf1 Nb1 Ti1,,0.25,,,,,,,,,0.25,,,,,0.25,,,,,,,,,0.25,,,,,
Al1 Hf1 Ta1 Ti1,,0.25,,,,,,,,,0.25,,,,,,,,,,,,,0.25,0.25,,,,,
Cr1 Nb1 Ta1 Ti1,,,,,,,0.25,,,,,,,,,0.25,,,,,,,,0.25,0.25,,,,,
Cr1 Nb1 Ti1 W1,,,,,,,0.25,,,,,,,,,0.25,,,,,,,,,0.25,,0.25,,,

File: grouped_by_composition.csv
Alloy composition,FORMULA,IDENTIFIER: Reference ID,REFERENCE: doi,PROPERTY: Processing method,PROPERTY: Microstructure,PROPERTY: O content (wppm),PROPERTY: N content (wppm),PROPERTY: C content (wppm),PROPERTY: grain size ($\mu$m),PROPERTY: ROM Density (g/cm$^3$),PROPERTY: Exp. Density (g/cm$^3$),PROPERTY: HV,PROPERTY: Type of test,PROPERTY: Test temperature ($^\circ$C),PROPERTY: YS (MPa),PROPERTY: UTS (MPa),PROPERTY: Elongation (%),PROPERTY: Elongation plastic (%),PROPERTY: Young modulus (GPa),REFERENCE: year
Ag1 Al1 Nb1 Ti1 Zn1,,,,,,,,,,,,,,,,,,,,
,Ag1 Al1 Nb1 Ti1 Zn1,122,10.1016/j.msea.2018.12.020,ANNEAL,,,,,,,4.75,,,,,,,,,2018
,Ag1 Al1 Nb1 Ti1 Zn1,122,10.1016/j.msea.2018.12.020,ANNEAL,,,,,,,5.78,,,,,,,,,2018
,Ag1 Al1 Nb1 Ti1 Zn1,122,10.1016/j.msea.2018.12.020,ANNEAL,,,,,,,5.79,,,,,,,,,2018
,Ag1 Al1 Nb1 Ti1 Zn1,122,10.1016/j.msea.2018.12.020,ANNEAL,,,,,,,5.51,,,,,,,,,2018
,Ag1 Al1 Nb1 Ti1 Zn1,122,10.1016/j.msea.2018.12.020,ANNEAL,,,,,,,,,,,,,,,,2018
Al0.05 Cr0.5 Fe1 Mn0.625 Ni0.375,,,,,,,,,,,,,,,,,,,,
,Al0.05 Cr0.5 Fe1 Mn0.625 Ni0.375,149,10.1016/j.jallcom.2018.08.093,CAST,,,,,,,,,C,25.0,354.0,,,,,2018
,Al0.05 Cr0.5 Fe1 Mn0.625 Ni0.375,149,10.1016/j.jallcom.2018.08.093,CAST,,,,,,,,,C,400.0,260.0,,,,,2018
,Al0.05 Cr0.5 Fe1 Mn0.625 Ni0.375,149,10.1016/j.jallcom.2018.08.093,CAST,,,,,,,,,C,600.0,155.0,,,,,2018
Al0.053 Cu1 Mn1 Ni1,,,,,,,,,,,,,,,,,,,,
,Al0.053 Cu1 Mn1 Ni1,62,10.1016/j.jallcom.2015.07.285,CAST,FCC,,,,,8.3,,166.0,C,25.0,330.0,,45.0,,174.0,2015
Al0.1 Co1 Cr1 Fe1 Mn1 Ni1,,,,,,,,,,,,,,,,,,,,
,Al0.1 Co1 Cr1 Fe1 Mn1 Ni1,16,10.1016/j.actamat.2013.09.037,CAST,FCC,,,,,7.9,,180.0,,25.0,,,,,216.0,2013
,Al0.1 Co1 Cr1 Fe1 Mn1 Ni1,135,10.1016/j.jallcom.2018.10.168,CAST,,,,,,,,432.0,C,25.0,1631.0,,,12.6,,2018
Al0.1 Co1 Cr1 Fe1 Ni1,,,,,,,,,,,,,,,,,,,,
,Al0.1 Co1 Cr1 Fe1 Ni1,179,10.1016/j.actamat.2018.12.012,WROUGHT,FCC,,,,20.0,,,,T,25.0,1198.0,,1.5,,,2018
,Al0.1 Co1 Cr1 Fe1 Ni1,179,10.1016/j.actamat.2018.12.012,WROUGHT,FCC,,,,20.0,,,,T,25.0,1403.0,,1.2,,,2018
,Al0.1 Co1 Cr1 Fe1 Ni1,179,10.1016/j.actamat.2018.12.012,WROUGHT,FCC,,,,20.0,,,,T,25.0,711.0,928.0,30.3,,,2018
,Al0.1 Co1 Cr1 Fe1 Ni1,179,10.1016/j.actamat.2018.12.012,WROUGHT,FCC,,,,7.0,,,,T,25.0,356.0,,42.4,,,2018
Al0.1 Cr0.5 Cu0.5 Fe0.5 Ni1,,,,,,,,,,,,,,,,,,,,
,Al0.1 Cr0.5 Cu0.5 Fe0.5 Ni1,33,10.1063/1.35872,,FCC,,,,,8.0,,,,25.0,,,,,199.0,2011
Al0.108 Co0.514 Cr0.514 Cu0.108 Fe0.514 Ni1,,,,,,,,,,,,,,,,,,,,
,Al0.108 Co0.514 Cr0.514 Cu0.108 Fe0.514 Ni1,159,10.1016/j.matchar.2018.06.036,WROUGHT,,,,,,,,,T,25.0,719.0,1048.0,30.0,,,2018
,Al0.108 Co0.514 Cr0.514 Cu0.108 Fe0.514 Ni1,159,10.1016/j.matchar.2018.06.036,WROUGHT,FCC,,,,,,,,T,25.0,460.0,732.0,32.0,,,2018
,Al0.108 Co0.514 Cr0.514 Cu0.108 Fe0.514 Ni1,159,10.1016/j.matchar.2018.06.036,WROUGHT,FCC,,,,,,,,T,25.0,719.0,1048.0,30.0,,,2018
,Al0.108 Co0.514 Cr0.514 Cu0.108 Fe0.514 Ni1,159,10.1016/j.matchar.2018.06.036,WROUGHT,,,,,,,,,T,25.0,460.0,732.0,32.0,,,2018
Al0.111 Cu1 Mn1 Ni1,,,,,,,,,,,,,,,,,,,,
,Al0.111 Cu1 Mn1 Ni1,62,10.1016/j.jallcom.2015.07.285,CAST,FCC+Sec.,,,,,8.1,,241.0,C,25.0,515.0,,40.0,,,2015
Al0.125 Co1 Cr1 Cu1 Fe1 Mn1 Ni1 Ti1 V1,,,,,,,,,,,,,,,,,,,,
,Al0.125 Co1 Cr1 Cu1 Fe1 Mn1 Ni1 Ti1 V1,61,10.1016/j.msea.2006.11.049,CAST,FCC+BCC,,,,,6.7,,,C,25.0,1862.0,2431.0,1.0,,164.0,2006
Al0.133 Co1 Cr0.667 Fe0.667 Ni1 Ti0.333,,,,,,,,,,,,,,,,,,,,
,Al0.133 Co1 Cr0.667 Fe0.667 Ni1 Ti0.333,1,10.1016/j.actamat.2011.06.041,ANNEAL,FCC,,,,,7.6,,487.0,,25.0,,,,,206.0,2011
Al0.133 Co1 Cr0.667 Fe0.667 Ni1 Ti0.667,,,,,,,,,,,,,,,,,,,,
,Al0.133 Co1 Cr0.667 Fe0.667 Ni1 Ti0.667,1,10.1016/j.actamat.2011.06.041,ANNEAL,FCC+Sec.,,,,,7.2,,717.0,,25.0,,,,,,2011
Al0.143 Cr0.343 Fe1 Mn0.8 Ni0.571,,,,,,,,,,,,,,,,,,,,
,Al0.143 Cr0.343 Fe1 Mn0.8 Ni0.571,208,10.1016/j.msea.2019.05.056,CAST,FCC,,,,,,,,T,25.0,280.0,556.0,48.0,48.2,,2019
,Al0.143 Cr0.343 Fe1 Mn0.8 Ni0.571,208,10.1016/j.msea.2019.05.056,CAST,FCC,,,,,,,,T,25.0,1253.0,1392.0,6.78,8.2,,2019
Al0.15 Cr0.5 Cu0.25 Fe0.5 Ni1,,,,,,,,,,,,,,,,,,,,
,Al0.15 Cr0.5 Cu0.25 Fe0.5 Ni1,187,10.1016/j.matchar.2019.109792,WROUGHT,FCC,,,,,,,107.0,T,62.0,169.0,,98.0,,16.6,2019
,Al0.15 Cr0.5 Cu0.25 Fe0.5 Ni1,187,10.1016/j.matchar.2019.109792,WROUGHT,,,,,,,,209.0,T,350.0,642.0,,73.0,,47.0,2019
,Al0.15 Cr0.5 Cu0.25 Fe0.5 Ni1,187,10.1016/j.matchar.2019.109792,WROUGHT,,,,,,,,321.0,T,535.0,904.0,,39.0,,35.2,2019
,Al0.15 Cr0.5 Cu0.25 Fe0.5 Ni1,187,10.1016/j.matchar.2019.109792,WROUGHT,,,,,,,,159.0,T,255.0,584.0,,88.0,,51.4,2019
Al0.15 Cr0.5 Fe1 Mn0.625 Ni0.375,,,,,,,,,,,,,,,,,,,,
,Al0.15 Cr0.5 Fe1 Mn0.625 Ni0.375,149,10.1016/j.jallcom.2018.08.093,CAST,,,,,,,,,C,25.0,550.0,,,,,2018
,Al0.15 Cr0.5 Fe1 Mn0.625 Ni0.375,149,10.1016/j.jallcom.2018.08.093,CAST,,,,,,,,,C,400.0,469.0,,,,,2018
,Al0.15 Cr0.5 Fe1 Mn0.625 Ni0.375,149,10.1016/j.jallcom.2018.08.093,CAST,,,,,,,,,C,600.0,272.0,,,,,2018
Al0.167 Co1 Cr1 Fe1 Ni1 Ti0.083,,,,,,,,,,,,,,,,,,,,
,Al0.167 Co1 Cr1 Fe1 Ni1 Ti0.083,159,10.1016/j.matchar.2018.06.036,ANNEAL,FCC,,,,289.7,,,,T,25.0,210.0,503.0,70.0,,,2018
,Al0.167 Co1 Cr1 Fe1 Ni1 Ti0.083,159,10.1016/j.matchar.2018.06.036,WROUGHT,,,,,15.7,,,,T,25.0,645.0,1094.0,39.0,,,2018
,Al0.167 Co1 Cr1 Fe1 Ni1 Ti0.083,159,10.1016/j.matchar.2018.06.036,WROUGHT,,,,,2.8,,,,T,25.0,1005.0,1273.0,17.0,,,2018
Al0.186 Cr0.149 Fe1 Mn0.861 Ni0.28,,,,,,,,,,,,,,,,,,,,
,Al0.186 Cr0.149 Fe1 Mn0.861 Ni0.28,113,10.1016/j.msea.2019.01.083,CAST,,,,,,,,,T,25.0,159.0,535.0,,40.8,,2019
,Al0.186 Cr0.149 Fe1 Mn0.861 Ni0.28,113,10.1016/j.msea.2019.01.083,ANNEAL,,,,,,,,,T,25.0,409.0,584.0,,10.5,,2019
,Al0.186 Cr0.149 Fe1 Mn0.861 Ni0.28,113,10.1016/j.msea.2019.01.083,CAST,,,,,,,,,T,25.0,355.0,1174.0,,49.5,,2019
,Al0.186 Cr0.149 Fe1 Mn0.861 Ni0.28,113,10.1016/j.msea.2019.01.083,ANNEAL,,,,,,,,,T,25.0,954.0,978.0,,2.0,,2019
Al0.2 Co1 Cr1 Fe1 Mn1 Ni1,,,,,,,,,,,,,,,,,,,,
,Al0.2 Co1 Cr1 Fe1 Mn1 Ni1,16,10.1016/j.actamat.2013.09.037,CAST,FCC,,,,,7.7,,171.0,T,25.0,220.0,,56.0,,214.0,2013
Al0.2 Cr0.5 Cu0.5 Fe0.5 Ni1,,,,,,,,,,,,,,,,,,,,
,Al0.2 Cr0.5 Cu0.5 Fe0.5 Ni1,33,10.1063/1.35872,,FCC,,,,,7.8,,,,25.0,,,,,194.0,2011
Al0.2 Cr0.667 Fe1 Mn0.667 Ni0.333,,,,,,,,,,,,,,,,,,,,
,Al0.2 Cr0.667 Fe1 Mn0.667 Ni0.333,18,10.1016/j.msea.2010.05.052,CAST,FCC+BCC,,,,,7.2,,297.0,,25.0,,,,,213.0,2010
Al0.2 Mo1 Ta1 Ti1 V1,,,,,,,,,,,,,,,,,,,,
,Al0.2 Mo1 Ta1 Ti1 V1,88,10.4028/www.scientific.net/MSF.898.638,CAST,BCC,,,,,9.2,,,C,25.0,1021.0,1249.0,,,184.0,2017
Al0.214 Nb0.714 Ta0.571 Ti1 V0.143 Zr0.929,,,,,,,,,,,,,,,,,,,,
,Al0.214 Nb0.714 Ta0.571 Ti1 V0.143 Zr0.929,39,10.1007/s11837-014-1066-0,OTHER,BCC,,,,180.0,7.7,,500.0,C,25.0,1965.0,2061.0,5.0,,110.0,2014
,Al0.214 Nb0.714 Ta0.571 Ti1 V0.143 Zr0.929,39,10.1007/s11837-014-1066-0,OTHER,BCC,,,,180.0,7.8,,,C,25.0,1965.0,2061.0,5.0,,,2014
,Al0.214 Nb0.714 Ta0.571 Ti1 V0.143 Zr0.929,39,10.1007/s11837-014-1066-0,OTHER,BCC,,,,180.0,7.8,,,C,800.0,678.0,693.0,50.0,,,2014
,Al0.214 Nb0.714 Ta0.571 Ti1 V0.143 Zr0.929,39,10.1007/s11837-014-1066-0,OTHER,BCC,,,,180.0,7.8,,,C,1000.0,166.0,189.0,50.0,,,2014
Al0.214 Nb0.714 Ta0.714 Ti1 Zr0.929,,,,,,,,,,,,,,,,,,,,
,Al0.214 Nb0.714 Ta0.714 Ti1 Zr0.929,39,10.1007/s11837-014-1066-0,OTHER,BCC,,,,200.0,8.1,,490.0,C,25.0,1965.0,2054.0,5.0,,113.0,2014
,Al0.214 Nb0.714 Ta0.714 Ti1 Zr0.929,39,10.1007/s11837-014-1066-0,OTHER,BCC,,,,200.0,8.2,,,C,25.0,1965.0,2054.0,5.0,,,2014
[...]
,Nb1 Ta1 Ti1 V1,127,10.1016/j.jallcom.2018.10.230,POWDER,BCC,,,,24.0,,,427.9,C,25.0,1108.0,,28.3,,,2018
,Nb1 Ta1 Ti1 V1,127,10.1016/j.jallcom.2018.10.230,POWDER,BCC,,,,30.0,,,444.3,C,25.0,1308.0,,27.9,,,2018
,Nb1 Ta1 Ti1 V1,127,10.1016/j.jallcom.2018.10.230,POWDER,BCC,4800.0,,1900.0,38.0,,,510.9,C,25.0,1373.0,,29.5,,,2018
Nb1 Ta1 Ti1 V1 W1,,,,,,,,,,,,,,,,,,,,
,Nb1 Ta1 Ti1 V1 W1,97,10.1016/j.msea.2016.07.102,CAST,BCC,,,,,11.0,,,C,25.0,1420.0,1800.0,20.0,,189.2,2016
Nb1 Ta1 Ti1 V1 Zr1,,,,,,,,,,,,,,,,,,,,
,Nb1 Ta1 Ti1 V1 Zr1,157,10.1016/j.actamat.2019.06.032,OTHER,,,,,,,8.43,,C,23.0,1395.0,,,,,2019
,Nb1 Ta1 Ti1 V1 Zr1,157,10.1016/j.actamat.2019.06.032,OTHER,,,,,,,8.43,,C,1000.0,190.0,,,,,2019
,Nb1 Ta1 Ti1 V1 Zr1,157,10.1016/j.actamat.2019.06.032,OTHER,,,,,,,8.43,,C,1200.0,78.0,,,,,2019
Nb1 Ta1 Ti1 W1,,,,,,,,,,,,,,,,,,,,
,Nb1 Ta1 Ti1 W1,192,10.1016/j.actamat.2019.06.006,ANNEAL,BCC,90.0,5,,,,,,C,20.0,1054.0,,,,,2019
,Nb1 Ta1 Ti1 W1,192,10.1016/j.actamat.2019.06.006,ANNEAL,BCC,90.0,5,,,,,,C,100.0,968.0,,,,,2019
,Nb1 Ta1 Ti1 W1,192,10.1016/j.actamat.2019.06.006,ANNEAL,BCC,90.0,5,,,,,,C,200.0,869.0,,,,,2019
,Nb1 Ta1 Ti1 W1,192,10.1016/j.actamat.2019.06.006,ANNEAL,BCC,90.0,5,,,,,,C,300.0,754.0,,,,,2019
,Nb1 Ta1 Ti1 W1,192,10.1016/j.actamat.2019.06.006,ANNEAL,BCC,90.0,5,,,,,,C,400.0,627.0,,,,,2019
,Nb1 Ta1 Ti1 W1,192,10.1016/j.actamat.2019.06.006,ANNEAL,BCC,90.0,5,,,,,,C,600.0,596.0,,,,,2019
,Nb1 Ta1 Ti1 W1,192,10.1016/j.actamat.2019.06.006,ANNEAL,BCC,90.0,5,,,,,,C,800.0,564.0,,,,,2019
,Nb1 Ta1 Ti1 W1,192,10.1016/j.actamat.2019.06.006,ANNEAL,BCC,90.0,5,,,,,,C,1000.0,459.0,,,,,2019
Nb1 Ta1 Ti1 Zr1,,,,,,,,,,,,,,,,,,,,
,Nb1 Ta1 Ti1 Zr1,121,10.3390/e21020114,CAST,BCC,,,,500.0,,,358.0,T,25.0,1144.0,1205.0,6.4,,98.0,2019
Nb1 Ta1 V1 W1,,,,,,,,,,,,,,,,,,,,
,Nb1 Ta1 V1 W1,97,10.1016/j.msea.2016.07.102,CAST,BCC,,,,,12.8,,,C,25.0,1530.0,1700.0,12.0,,207.5,2016
Nb1 Ti1 V0.3 Zr1,,,,,,,,,,,,,,,,,,,,
,Nb1 Ti1 V0.3 Zr1,58,10.1016/j.matdes.2015.06.072,ANNEAL,BCC,,,,,6.5,,,C,25.0,866.0,,,45.0,,2015
Nb1 Ti1 V1 Zr1,,,,,,,,,,,,,,,,,,,,
,Nb1 Ti1 V1 Zr1,45,10.1016/j.msea.2012.12.018,OTHER,BCC,,,,550.0,6.5,,335.0,C,25.0,1105.0,,50.0,,104.0,2012
,Nb1 Ti1 V1 Zr1,45,10.1016/j.msea.2012.12.018,OTHER,BCC,,,,,6.5,,,C,25.0,1105.0,,50.0,,,2012
,Nb1 Ti1 V1 Zr1,45,10.1016/j.msea.2012.12.018,OTHER,BCC,,,,,6.5,,,C,600.0,834.0,,50.0,,,2012
,Nb1 Ti1 V1 Zr1,45,10.1016/j.msea.2012.12.018,OTHER,BCC,,,,,6.5,,,C,800.0,187.0,,50.0,,,2012
,Nb1 Ti1 V1 Zr1,45,10.1016/j.msea.2012.12.018,OTHER,BCC,,,,,6.5,,,C,1000.0,58.0,,50.0,,,2012
,Nb1 Ti1 V1 Zr1,58,10.1016/j.matdes.2015.06.072,ANNEAL,BCC,,,,,6.5,,,C,25.0,1104.0,,,50.0,,2015
,Nb1 Ti1 V1 Zr1,133,10.1080/02670836.2018.1446267,,,,,,,,6.52,335.0,C,25.0,1105.0,,50.0,,,2018
Nb1 Ti1 Zr1,,,,,,,,,,,,,,,,,,,,
,Nb1 Ti1 Zr1,157,10.1016/j.actamat.2019.06.032,OTHER,BCC,,,,,,6.63,,C,23.0,975.0,,,,,2019
,Nb1 Ti1 Zr1,157,10.1016/j.actamat.2019.06.032,OTHER,BCC,,,,,,6.63,,C,1000.0,141.0,,,,,2019
,Nb1 Ti1 Zr1,157,10.1016/j.actamat.2019.06.032,OTHER,BCC,,,,,,6.63,,C,1200.0,61.0,,,,,2019
,Nb1 Ti1 Zr1,184,10.1007/s12598-019-01310-6,CAST,BCC,,,,,,,372.0,C,25.0,1223.0,,48.0,,,2019
,Nb1 Ti1 Zr1,184,10.1007/s12598-019-01310-6,ANNEAL,BCC,,,,300.0,,,,,,,,,,,2019
,Nb1 Ti1 Zr1,184,10.1007/s12598-019-01310-6,CAST,BCC,,,,,,,,C,1073.0,462.0,,51.0,,,2019
,Nb1 Ti1 Zr1,184,10.1007/s12598-019-01310-6,CAST,BCC,,,,,,,,C,1273.0,218.0,,51.0,,,2019
,Nb1 Ti1 Zr1,121,10.3390/e21020114,CAST,BCC,,,,500.0,,,295.0,T,25.0,956.0,991.0,14.2,,88.0,2019
Ta1 Ti1 Zr1,,,,,,,,,,,,,,,,,,,,
,Ta1 Ti1 Zr1,121,10.3390/e21020114,CAST,,,,,500.0,,,485.0,T,25.0,,284.0,0.0,,157.0,2019