Folder: MPEA_dataset/test_functions/ML_outlier_id/outliers

Note: README.md
# Expanded dataset of mechanical properties and observed phases of multi-principal element alloys

1. [2018 data](/2018_data/2018_data.csv)
This file was generated from previous reviews ([Gorsse2018](https://doi.org/10.1016/j.dib.2018.11.111), [Couzinine2018](https://doi.org/10.1016/j.dib.2018.10.071)).

2. [2019 data](/2019_data/2019_data.csv)
This file was generated through the extraction of data from references in [wos_query_refs.bib](/2019_data/wos_query_refs.bib).

3. combine_and_process.ipynb generates MPEA_dataset.csv

File: Property Calculated Young modulus.csv
,FORMULA,PROPERTY: Calculated Young modulus (GPa),Predicted Property Calculated Young modulus,Predicted Property Calculated Young modulus loss,REFERENCE: doi
1068,Mo1 Nb1 Re0.5 W1,298.0,277.7,17.2,10.1016/j.jallcom.2018.11.111
1279,Co0.25 Cr0.25 Fe1 Mn1,212.0,215.7,14.8,10.1016/j.msea.2019.138039
1282,Co0.25 Cr0.25 Fe1 Mn1,212.0,215.7,14.8,10.1016/j.msea.2019.138039
1281,Co0.25 Cr0.25 Fe1 Mn1,212.0,215.7,14.8,10.1016/j.msea.2019.138039
1284,Co0.25 Cr0.25 Fe1 Mn1,212.0,215.7,14.8,10.1016/j.msea.2019.138039
1280,Co0.25 Cr0.25 Fe1 Mn1,212.0,215.7,14.8,10.1016/j.msea.2019.138039
1283,Co0.25 Cr0.25 Fe1 Mn1,212.0,215.7,14.8,10.1016/j.msea.2019.138039
903,Al1 Cr1 Mo1 Ti1,189.0,176.9,11.0,10.1016/j.actamat.2019.06.032
929,Al1 Cr1 Mo1 Ti1,189.0,176.9,11.0,10.1016/j.actamat.2019.06.032
432,Al1 Cr1 Mo1 Ti1,189.0,176.9,11.0,10.1007/s11661-017-4386-1
431,Al1 Cr1 Mo1 Ti1,189.0,176.9,11.0,10.1007/s11661-017-4386-1
955,Al1 Cr1 Mo1 Ti1,189.0,176.9,11.0,10.1016/j.actamat.2019.06.032
435,Al1 Cr1 Mo1 Ti1,189.0,176.9,11.0,10.1007/s11661-017-4386-1
434,Al1 Cr1 Mo1 Ti1,189.0,176.9,11.0,10.1007/s11661-017-4386-1
433,Al1 Cr1 Mo1 Ti1,189.0,176.9,11.0,10.1007/s11661-017-4386-1
351,Mo1 Nb1 Ta1 W1,250.0,248.8,10.1,10.1016/j.intermet.2011.01.004
242,Al1 Cu1 Ni1 Ti1,122.0,119.7,10.1,10.1016/j.apsusc.2015.07.207
347,Mo1 Nb1 Ta1 W1,250.0,248.8,10.1,10.1016/j.intermet.2011.01.004
349,Mo1 Nb1 Ta1 W1,250.0,248.8,10.1,10.1016/j.intermet.2011.01.004
348,Mo1 Nb1 Ta1 W1,250.0,248.8,10.1,10.1016/j.intermet.2011.01.004
352,Mo1 Nb1 Ta1 W1,250.0,248.8,10.1,10.1016/j.intermet.2011.01.004
965,Mo1 Nb1 Ta1 W1,250.0,248.8,10.1,10.1016/j.actamat.2019.06.032
353,Mo1 Nb1 Ta1 W1,250.0,248.8,10.1,10.1016/j.intermet.2011.01.004
350,Mo1 Nb1 Ta1 W1,250.0,248.8,10.1,10.1016/j.intermet.2011.01.004
574,Mo1 Nb1 Ta1 W1,250.0,248.8,10.1,10.1016/j.msea.2017.12.004
913,Mo1 Nb1 Ta1 W1,250.0,248.8,10.1,10.1016/j.actamat.2019.06.032
939,Mo1 Nb1 Ta1 W1,250.0,248.8,10.1,10.1016/j.actamat.2019.06.032
1293,Mo1 Nb1 Ta1 W1,250.0,248.8,10.1,10.1007/s10853-019-03567-9
590,Nb1 Ta1 Ti1 V1,134.0,140.8,10.0,10.1016/j.msea.2016.07.102
282,Nb1 Ta1 Ti1 V1,134.0,140.8,10.0,10.1016/j.proeng.2012.03.043
774,Nb1 Ta1 Ti1 V1,134.0,140.8,10.0,10.1016/j.jallcom.2018.10.230
772,Nb1 Ta1 Ti1 V1,134.0,140.8,10.0,10.1016/j.jallcom.2018.10.230
773,Nb1 Ta1 Ti1 V1,134.0,140.8,10.0,10.1016/j.jallcom.2018.10.230
592,Nb1 Ta1 V1 W1,206.0,212.9,9.6,10.1016/j.msea.2016.07.102
1452,Nb1 Ta1 Ti1,136.0,139.1,8.8,10.3390/e21020114
1199,Nb1 Ta1 Ti1,136.0,139.1,8.8,10.1016/j.actamat.2019.06.006
1198,Nb1 Ta1 Ti1,136.0,139.1,8.8,10.1016/j.actamat.2019.06.006
1195,Nb1 Ta1 Ti1,136.0,139.1,8.8,10.1016/j.actamat.2019.06.006
1197,Nb1 Ta1 Ti1,136.0,139.1,8.8,10.1016/j.actamat.2019.06.006
1192,Nb1 Ta1 Ti1,136.0,139.1,8.8,10.1016/j.actamat.2019.06.006
1193,Nb1 Ta1 Ti1,136.0,139.1,8.8,10.1016/j.actamat.2019.06.006
1194,Nb1 Ta1 Ti1,136.0,139.1,8.8,10.1016/j.actamat.2019.06.006
1196,Nb1 Ta1 Ti1,136.0,139.1,8.8,10.1016/j.actamat.2019.06.006
986,Co1 Fe1 Ni1,207.0,207.5,8.5,10.1016/j.intermet.2019.106477
985,Co1 Fe1 Ni1,207.0,207.5,8.5,10.1016/j.intermet.2019.106477
5,Co1 Fe1 Ni1,207.0,207.5,8.5,10.1016/j.jmmm.2014.07.023
13,Co1 Fe1 Ni1,207.0,207.5,8.5,10.1016/j.actamat.2014.08.026
984,Co1 Fe1 Ni1,207.0,207.5,8.5,10.1016/j.intermet.2019.106477
987,Co1 Fe1 Ni1,207.0,207.5,8.5,10.1016/j.intermet.2019.106477
993,Co1 Fe1 Ni1,207.0,207.5,8.5,10.1016/j.actamat.2019.04.017
4,Co1 Fe1 Ni1,207.0,207.5,8.5,10.1016/j.jmmm.2014.07.023
581,Mo1 Nb1 Ta1 Ti1 W1,222.0,217.3,8.0,10.1016/j.intermet.2017.01.007
937,Mo1 Nb1 Ta1 Ti1 W1,222.0,217.3,8.0,10.1016/j.actamat.2019.06.032
911,Mo1 Nb1 Ta1 Ti1 W1,222.0,217.3,8.0,10.1016/j.actamat.2019.06.032
573,Mo1 Nb1 Ta1 Ti1 W1,222.0,217.3,8.0,10.1016/j.msea.2017.12.004
582,Mo1 Nb1 Ta1 Ti1 W1,222.0,217.3,8.0,10.1016/j.intermet.2017.01.007
585,Mo1 Nb1 Ta1 Ti1 W1,222.0,217.3,8.0,10.1016/j.intermet.2017.01.007
584,Mo1 Nb1 Ta1 Ti1 W1,222.0,217.3,8.0,10.1016/j.intermet.2017.01.007
583,Mo1 Nb1 Ta1 Ti1 W1,222.0,217.3,8.0,10.1016/j.intermet.2017.01.007
963,Mo1 Nb1 Ta1 Ti1 W1,222.0,217.3,8.0,10.1016/j.actamat.2019.06.032
241,Al1 Cu1 Fe1 Ni1 Ti1,137.0,141.1,7.8,10.1016/j.apsusc.2015.07.207
1002,Co1 Mn1 Ni1,202.0,202.6,7.6,10.1016/j.actamat.2019.04.017
1003,Co1 Mn1 Ni1,202.0,202.6,7.6,10.1016/j.actamat.2019.04.017
1004,Co1 Mn1 Ni1,202.0,202.6,7.6,10.1016/j.actamat.2019.04.017
14,Co1 Mn1 Ni1,202.0,202.6,7.6,10.1016/j.actamat.2014.08.026
1001,Co1 Mn1 Ni1,202.0,202.6,7.6,10.1016/j.actamat.2019.04.017
439,Al1 Mo1 Nb1 Ti1,151.0,148.1,7.5,10.1007/s11661-017-4386-1
904,Al1 Mo1 Nb1 Ti1,151.0,148.1,7.5,10.1016/j.actamat.2019.06.032
438,Al1 Mo1 Nb1 Ti1,151.0,148.1,7.5,10.1007/s11661-017-4386-1
437,Al1 Mo1 Nb1 Ti1,151.0,148.1,7.5,10.1007/s11661-017-4386-1
436,Al1 Mo1 Nb1 Ti1,151.0,148.1,7.5,10.1007/s11661-017-4386-1
956,Al1 Mo1 Nb1 Ti1,151.0,148.1,7.5,10.1016/j.actamat.2019.06.032
930,Al1 Mo1 Nb1 Ti1,151.0,148.1,7.5,10.1016/j.actamat.2019.06.032
240,Al1 Cu0.889 Fe0.667 Ni0.889 Ti1,131.0,131.4,7.4,10.1016/j.apsusc.2015.07.207
239,Al1 Cu0.889 Fe0.667 Ni0.889 Ti1,131.0,131.4,7.4,10.1016/j.apsusc.2015.07.207
934,Hf1 Mo1 Ta1 Ti1 Zr1,143.0,135.0,7.2,10.1016/j.actamat.2019.06.032
908,Hf1 Mo1 Ta1 Ti1 Zr1,143.0,135.0,7.2,10.1016/j.actamat.2019.06.032
319,Hf1 Mo1 Ta1 Ti1 Zr1,143.0,135.0,7.2,10.1016/j.intermet.2015.03.013
320,Hf1 Mo1 Ta1 Ti1 Zr1,143.0,135.0,7.2,10.1016/j.intermet.2015.03.013
321,Hf1 Mo1 Ta1 Ti1 Zr1,143.0,135.0,7.2,10.1016/j.intermet.2015.03.013
322,Hf1 Mo1 Ta1 Ti1 Zr1,143.0,135.0,7.2,10.1016/j.intermet.2015.03.013
960,Hf1 Mo1 Ta1 Ti1 Zr1,143.0,135.0,7.2,10.1016/j.actamat.2019.06.032
1480,Hf1 Mo1 Ta1 Ti1 Zr1,143.0,135.0,7.2,10.3390/e21010015
1490,Hf1 Mo1 Ta1 Ti1 Zr1,143.0,135.0,7.2,10.3390/e21010015
1495,Hf1 Mo1 Ta1 Ti1 Zr1,143.0,135.0,7.2,10.3390/e21010015
1485,Hf1 Mo1 Ta1 Ti1 Zr1,143.0,135.0,7.2,10.3390/e21010015
684,Co1 Cr0.429 Fe0.571 Mo0.286 Ni0.571,234.0,228.4,7.1,10.1016/j.scriptamat.2017.05.019
678,Co1 Cr0.429 Fe0.571 Mo0.286 Ni0.571,234.0,228.4,7.1,10.1016/j.scriptamat.2017.05.019
394,Cu1 Mn1 Ni1 Zn0.333,167.0,164.0,7.1,10.1016/j.jallcom.2015.07.285
1218,Nb1 Ta1 Ti1 W1,198.0,198.4,6.9,10.1016/j.actamat.2019.06.006
1212,Nb1 Ta1 Ti1 W1,198.0,198.4,6.9,10.1016/j.actamat.2019.06.006
1219,Nb1 Ta1 Ti1 W1,198.0,198.4,6.9,10.1016/j.actamat.2019.06.006
1217,Nb1 Ta1 Ti1 W1,198.0,198.4,6.9,10.1016/j.actamat.2019.06.006
1216,Nb1 Ta1 Ti1 W1,198.0,198.4,6.9,10.1016/j.actamat.2019.06.006
1215,Nb1 Ta1 Ti1 W1,198.0,198.4,6.9,10.1016/j.actamat.2019.06.006
1214,Nb1 Ta1 Ti1 W1,198.0,198.4,6.9,10.1016/j.actamat.2019.06.006
1213,Nb1 Ta1 Ti1 W1,198.0,198.4,6.9,10.1016/j.actamat.2019.06.006
591,Nb1 Ta1 Ti1 V1 W1,187.0,193.5,6.8,10.1016/j.msea.2016.07.102
410,Al1 Co0.5 Cr0.5 Cu0.5 Fe0.5 Ni0.5,156.0,161.2,6.7,10.1007/s11661-005-0218-9
407,Al1 Co0.5 Cr0.5 Cu0.5 Fe0.5 Ni0.5,156.0,161.2,6.7,10.1007/s11661-005-0218-9
408,Al1 Co0.5 Cr0.5 Cu0.5 Fe0.5 Ni0.5,156.0,161.2,6.7,10.1007/s11661-005-0218-9
409,Al1 Co0.5 Cr0.5 Cu0.5 Fe0.5 Ni0.5,156.0,161.2,6.7,10.1007/s11661-005-0218-9
412,Al1 Co0.5 Cr0.5 Cu0.5 Fe0.5 Ni0.5,156.0,161.2,6.7,10.1007/s11661-005-0218-9
413,Al1 Co0.5 Cr0.5 Cu0.5 Fe0.5 Ni0.5,156.0,161.2,6.7,10.1007/s11661-005-0218-9
414,Al1 Co0.5 Cr0.5 Cu0.5 Fe0.5 Ni0.5,156.0,161.2,6.7,10.1007/s11661-005-0218-9
411,Al1 Co0.5 Cr0.5 Cu0.5 Fe0.5 Ni0.5,156.0,161.2,6.7,10.1007/s11661-005-0218-9
[...]
1030,Co1 Cr1 Fe1 Mn1 Ni1,220.0,219.8,1.2,10.1016/j.msea.2019.04.025
980,Co1 Cr1 Fe1 Mn1 Ni1,220.0,219.8,1.2,10.1016/j.intermet.2019.106486
771,Co1 Cr1 Fe1 Mn1 Ni1,220.0,219.8,1.2,10.1016/j.scriptamat.2018.11.042
1029,Co1 Cr1 Fe1 Mn1 Ni1,220.0,219.8,1.2,10.1016/j.msea.2019.04.025
1033,Co1 Cr1 Fe1 Mn1 Ni1,220.0,219.8,1.2,10.1016/j.msea.2019.04.025
1031,Co1 Cr1 Fe1 Mn1 Ni1,220.0,219.8,1.2,10.1016/j.msea.2019.04.025
1032,Co1 Cr1 Fe1 Mn1 Ni1,220.0,219.8,1.2,10.1016/j.msea.2019.04.025
1034,Co1 Cr1 Fe1 Mn1 Ni1,220.0,219.8,1.2,10.1016/j.msea.2019.04.025
1035,Co1 Cr1 Fe1 Mn1 Ni1,220.0,219.8,1.2,10.1016/j.msea.2019.04.025
1036,Co1 Cr1 Fe1 Mn1 Ni1,220.0,219.8,1.2,10.1016/j.msea.2019.04.025
815,Co1 Cr1 Fe1 Mn1 Ni1,220.0,219.8,1.2,10.1016/j.jallcom.2018.08.115
137,Co1 Cr1 Fe1 Mn1 Ni1,220.0,219.8,1.2,10.1016/j.actamat.2013.09.037
138,Co1 Cr1 Fe1 Mn1 Ni1,220.0,219.8,1.2,10.1016/j.jallcom.2014.12.157
139,Co1 Cr1 Fe1 Mn1 Ni1,220.0,219.8,1.2,10.1016/j.jallcom.2014.12.157
805,Co1 Cr1 Fe1 Mn1 Ni1,220.0,219.8,1.2,10.1016/j.msea.2019.01.050
769,Co1 Cr1 Fe1 Mn1 Ni1,220.0,219.8,1.2,10.1016/j.scriptamat.2018.11.042
775,Co1 Cr1 Fe1 Mn1 Ni1,220.0,219.8,1.2,10.1016/j.jmst.2018.09.068
776,Co1 Cr1 Fe1 Mn1 Ni1,220.0,219.8,1.2,10.1016/j.jmst.2018.09.068
794,Co1 Cr1 Fe1 Mn1 Ni1,220.0,219.8,1.2,10.1016/j.jmst.2018.10.009
770,Co1 Cr1 Fe1 Mn1 Ni1,220.0,219.8,1.2,10.1016/j.scriptamat.2018.11.042
757,Co1 Cr1 Fe1 Mn1 Ni1,220.0,219.8,1.2,10.1016/j.msea.2018.10.094
756,Co1 Cr1 Fe1 Mn1 Ni1,220.0,219.8,1.2,10.1016/j.msea.2018.10.094
1324,Co1 Cr1 Fe1 Mn1 Ni1,220.0,219.8,1.2,10.1007/s11661-019-05231-y
1285,Co1 Cr1 Fe1 Mn1 Ni1,220.0,219.8,1.2,10.1016/j.jallcom.2019.04.121
1314,Co1 Cr1 Fe1 Mn1 Ni1,220.0,219.8,1.2,10.1007/s11661-019-05231-y
1315,Co1 Cr1 Fe1 Mn1 Ni1,220.0,219.8,1.2,10.1007/s11661-019-05231-y
1316,Co1 Cr1 Fe1 Mn1 Ni1,220.0,219.8,1.2,10.1007/s11661-019-05231-y
1317,Co1 Cr1 Fe1 Mn1 Ni1,220.0,219.8,1.2,10.1007/s11661-019-05231-y
1318,Co1 Cr1 Fe1 Mn1 Ni1,220.0,219.8,1.2,10.1007/s11661-019-05231-y
1319,Co1 Cr1 Fe1 Mn1 Ni1,220.0,219.8,1.2,10.1007/s11661-019-05231-y
1320,Co1 Cr1 Fe1 Mn1 Ni1,220.0,219.8,1.2,10.1007/s11661-019-05231-y
1321,Co1 Cr1 Fe1 Mn1 Ni1,220.0,219.8,1.2,10.1007/s11661-019-05231-y
724,Co1 Cr1 Fe1 Mn1 Ni1,220.0,219.8,1.2,10.1134/S0031918X17060084
1323,Co1 Cr1 Fe1 Mn1 Ni1,220.0,219.8,1.2,10.1007/s11661-019-05231-y
1322,Co1 Cr1 Fe1 Mn1 Ni1,220.0,219.8,1.2,10.1007/s11661-019-05231-y
270,Al0.5 Hf1 Nb1 Ta1 Ti1 Zr1,104.0,104.7,1.2,10.1016/j.jallcom.2014.11.064
694,Co1 Cr1 Fe1 Mn1 Ni1,220.0,219.8,1.2,10.1080/02670836.2017.1342367
630,Co1 Cr1 Fe1 Mn1 Ni1,220.0,219.8,1.2,10.1016/j.actamat.2013.06.018
692,Co1 Cr1 Fe1 Mn1 Ni1,220.0,219.8,1.2,10.1080/02670836.2017.1342367
373,Mo1 Nb1 Ti1 V0.75 Zr1,141.0,141.2,1.1,10.1007/s11837-012-0366-5
374,Mo1 Nb1 Ti1 V1 Zr1,141.0,141.0,1.1,10.1007/s11837-012-0366-5
361,Mo1 Nb1 Ti1 V1 Zr1,141.0,141.0,1.1,10.1016/j.matdes.2015.06.072
1245,Hf0.25 Nb0.5 Ti1 V0.5 Zr0.5,101.0,100.8,1.0,10.1007/s40195-019-00921-3
371,Mo1 Nb1 Ti1 V0.25 Zr1,142.0,142.0,1.0,10.1007/s11837-012-0366-5
1246,Hf0.25 Nb0.5 Ti1 V0.5 Zr0.5,101.0,100.8,1.0,10.1007/s40195-019-00921-3
1247,Hf0.25 Nb0.5 Ti1 V0.5 Zr0.5,101.0,100.8,1.0,10.1007/s40195-019-00921-3
372,Mo1 Nb1 Ti1 V0.5 Zr1,142.0,141.8,0.9,10.1007/s11837-012-0366-5
362,Mo1 Nb1 Ti1 V0.3 Zr1,142.0,141.9,0.9,10.1016/j.matdes.2015.06.072
1241,Hf0.25 Nb0.25 Ti1 V0.5 Zr0.5,100.0,99.8,0.8,10.1007/s40195-019-00921-3
1242,Hf0.25 Nb0.25 Ti1 V0.5 Zr0.5,100.0,99.8,0.8,10.1007/s40195-019-00921-3
1243,Hf0.25 Nb0.25 Ti1 V0.5 Zr0.5,100.0,99.8,0.8,10.1007/s40195-019-00921-3
1244,Hf0.25 Nb0.375 Ti1 V0.5 Zr0.5,100.0,100.0,0.8,10.1007/s40195-019-00921-3

File: Property Elongation.csv
,FORMULA,PROPERTY: Elongation (%),Predicted Property Elongation,Predicted Property Elongation loss,REFERENCE: doi
1040,Co0.5 Fe0.5 Mo0.1 Ni1 V0.25,189.2,161.8,52.2,10.1016/j.scriptamat.2019.02.038
1041,Co0.5 Fe0.5 Mo0.1 Ni1 V0.25,154.3,147.8,37.6,10.1016/j.scriptamat.2019.02.038
1042,Co0.5 Fe0.5 Mo0.1 Ni1 V0.25,119.5,129.4,33.3,10.1016/j.scriptamat.2019.02.038
1137,Al0.15 Cr0.5 Cu0.25 Fe0.5 Ni1,39.0,55.7,32.8,10.1016/j.matchar.2019.109792
726,Co1 Cr1 Fe1 Mn1 Ni1 V0.5,75.0,58.9,32.0,10.1134/S0031918X17060084
1039,Co0.5 Fe0.5 Mo0.1 Ni1 V0.25,82.1,67.6,30.1,10.1016/j.scriptamat.2019.02.038
727,Co1 Cr1 Fe1 Mn1 Ni1 V0.765,8.0,20.3,29.9,10.1134/S0031918X17060084
747,Al1 Co1 Cr1 Cu1 Fe1 Ni1,63.0,45.0,29.4,10.1016/j.msea.2011.11.045
844,Co1 Cr0.455 Fe0.364 Ni0.364,20.3,34.9,28.8,10.1080/21663831.2018.1553803
746,Al1 Co1 Cr1 Cu1 Fe1 Ni1,5.0,20.7,28.4,10.1016/j.msea.2011.11.045
1038,Co0.5 Fe0.5 Mo0.1 Ni1 V0.25,28.8,40.0,27.5,10.1016/j.scriptamat.2019.02.038
724,Co1 Cr1 Fe1 Mn1 Ni1,75.0,59.6,26.7,10.1134/S0031918X17060084
845,Co1 Cr0.385 Fe0.154 Ni0.154,13.3,25.7,26.0,10.1080/21663831.2018.1553803
1135,Al0.15 Cr0.5 Cu0.25 Fe0.5 Ni1,98.0,87.3,25.3,10.1016/j.matchar.2019.109792
1400,Al0.312 Ca0.021 Li0.792 Mg1 Si0.021,9.0,23.6,24.8,10.3390/ma12071136
288,Cr1 Mo0.5 Nb1 Ta0.5 Ti1 Zr1,5.5,20.8,24.3,10.1016/j.msea.2011.09.033
1359,Co0.139 Cr0.446 Cu0.99 Ni1 Si0.277,3.4,13.6,24.2,10.1016/j.msea.2019.05.003
743,Al1 Co1 Cr1 Cu1 Fe1 Ni1,1.0,10.6,24.2,10.1016/j.msea.2011.11.045
725,Co1 Cr1 Fe1 Mn1 Ni1 V0.263,75.0,65.0,23.7,10.1134/S0031918X17060084
1409,Cr1 Fe1 Ni1 Ti0.2,5.8,17.0,23.4,10.1557/jmr.2019.40
697,Al0.167 Co1 Cr1 Fe1 Ni1 Ti0.083,70.0,55.6,23.4,10.1016/j.actamat.2015.08.076
1381,Co1 Cr0.2 Fe1 Ni1 Si0.2,60.0,37.0,22.6,10.1016/j.jmmm.2019.01.096
1380,Co1 Cr0.2 Fe1 Ni1 Si0.2,10.0,37.0,22.6,10.1016/j.jmmm.2019.01.096
1037,Co0.5 Fe0.5 Mo0.1 Ni1 V0.25,34.6,38.4,22.4,10.1016/j.scriptamat.2019.02.038
843,Co1 Cr0.556 Fe0.667 Ni0.667,76.1,72.3,22.4,10.1080/21663831.2018.1553803
1480,Hf1 Mo1 Ta1 Ti1 Zr1,4.0,16.4,22.3,10.3390/e21010015
319,Hf1 Mo1 Ta1 Ti1 Zr1,4.0,16.4,22.3,10.1016/j.intermet.2015.03.013
332,Hf1 Nb1 Ta1 Ti1 Zr1,50.0,39.5,22.0,10.1007/s10853-012-6260-2
292,Cr1 Nb1 Ti1 V1 Zr1,10.0,21.5,21.7,10.1016/j.msea.2012.12.018
1402,Al0.333 Ca0.011 Li0.867 Mg1 Si0.011,63.0,51.2,21.7,10.3390/ma12071136
397,Cu1 Mn1 Ni1 Sn0.111,20.0,31.2,20.6,10.1016/j.jallcom.2015.07.285
263,Al1 Mo0.5 Nb1 Ta0.5 Ti1 Zr1,11.0,22.3,20.5,10.1007/s11837-014-1066-0
842,Co0.875 Cr0.625 Fe1 Ni1,96.2,85.8,20.2,10.1080/21663831.2018.1553803
1181,Co1 Cr1 Fe1 Ni1 Ti0.3,60.0,48.7,20.1,10.1016/j.msea.2019.138181
1136,Al0.15 Cr0.5 Cu0.25 Fe0.5 Ni1,73.0,71.3,20.1,10.1016/j.matchar.2019.109792
18,Co1 Cr1 Fe1 Nb0.206 Ni1,9.0,18.8,20.0,10.1016/j.intermet.2015.01.004
267,Al0.667 Nb1 Ta0.333 Ti1 Zr0.333,12.0,21.8,19.9,10.1007/s11837-014-1066-0
1379,Co1 Cr0.2 Fe1 Ni1 Si0.2,61.0,51.5,19.6,10.1016/j.jmmm.2019.01.096
1401,Al0.333 Ca0.011 Li0.844 Mg1 Si0.033,44.0,40.7,19.5,10.3390/ma12071136
841,Co0.5 Cr0.5 Fe1 Ni1,77.3,75.5,19.3,10.1080/21663831.2018.1553803
296,Cr1 Nb1 Ti1 Zr1,50.0,42.1,19.1,10.1016/j.msea.2012.12.018
728,Co1 Cr1 Fe1 Mn1 Ni1 V1,1.0,7.8,19.1,10.1134/S0031918X17060084
1138,Al0.15 Cr0.5 Cu0.25 Fe0.5 Ni1,88.0,82.5,19.0,10.1016/j.matchar.2019.109792
533,Hf1 Nb1 Si0.5 Ti1 V1 Zr1,14.5,23.7,18.9,10.4028/www.scientific.net/MSF.849.76
1345,Al0.143 Cr0.343 Fe1 Mn0.8 Ni0.571,48.0,29.5,18.9,10.1016/j.msea.2019.05.056
1347,Al0.143 Cr0.343 Fe1 Mn0.8 Ni0.571,6.78,29.5,18.9,10.1016/j.msea.2019.05.056
769,Co1 Cr1 Fe1 Mn1 Ni1,57.0,52.4,18.8,10.1016/j.scriptamat.2018.11.042
394,Cu1 Mn1 Ni1 Zn0.333,60.0,52.7,18.7,10.1016/j.jallcom.2015.07.285
19,Co1 Cr1 Fe1 Nb0.309 Ni1,4.0,11.9,18.5,10.1016/j.intermet.2015.01.004
1399,Al0.429 Ca0.286 Li1 Mg1 Si0.143,13.0,18.4,18.4,10.3390/ma12071136
737,Al0.242 Co0.515 Cr0.515 Cu0.242 Fe0.515 Ni1,0.1,19.1,18.2,10.1007/s11837-013-0756-3
738,Al0.242 Co0.515 Cr0.515 Cu0.242 Fe0.515 Ni1,39.0,19.1,18.2,10.1007/s11837-013-0756-3
729,Al0.304 Co1 Cr1 Fe1 Ni1,25.0,36.3,18.0,10.1016/j.msea.2015.02.072
312,Hf1 Mo0.75 Nb1 Ta1 Ti1 Zr1,50.0,40.7,17.9,10.1016/j.matlet.2016.03.133
293,Cr1 Nb1 Ti1 V1 Zr1,50.0,43.0,17.8,10.1016/j.msea.2012.12.018
1454,Nb1 Ti1 Zr1,14.2,23.0,17.7,10.3390/e21020114
1121,Nb1 Ti1 Zr1,48.0,38.6,17.5,10.1007/s12598-019-01310-6
1122,Hf1 Nb1 Ti1 Zr1,52.0,42.4,17.5,10.1007/s12598-019-01310-6
1411,Cr1 Fe1 Ni1 Ti0.4,6.5,12.5,17.4,10.1557/jmr.2019.40
16,Co1 Cr1 Fe1 Nb0.103 Ni1,19.0,26.1,17.2,10.1016/j.intermet.2015.01.004
1476,Co1 Cr1 Fe1 Mn1 Ni1,47.0,53.4,17.1,10.1080/00325899.2018.1554834
1378,Al0.8 Cr1 Fe1 Mn1 Ni1,55.0,47.8,17.0,10.1016/j.msea.2019.04.104
1005,Co1 Cr0.25 Ni1,36.0,66.0,16.8,10.1016/j.actamat.2019.04.017
1348,Al0.286 Cr0.343 Fe1 Mn0.657 Ni0.571,5.83,24.8,16.8,10.1016/j.msea.2019.05.056
1346,Al0.286 Cr0.343 Fe1 Mn0.657 Ni0.571,42.2,24.8,16.8,10.1016/j.msea.2019.05.056
1006,Co1 Cr0.25 Ni1,53.0,66.0,16.8,10.1016/j.actamat.2019.04.017
1008,Co1 Cr0.25 Ni1,101.0,66.0,16.8,10.1016/j.actamat.2019.04.017
1007,Co1 Cr0.25 Ni1,73.0,66.0,16.8,10.1016/j.actamat.2019.04.017
723,Al0.515 Cr0.515 Cu0.515 Fe0.515 Ni1,30.0,29.7,16.7,10.1016/j.msea.2015.09.089
273,Hf1 Nb1 Ta1 Ti1 Zr1,50.0,43.6,16.7,10.1016/j.jallcom.2014.11.064
314,Hf1 Nb1 Ta1 Ti1 Zr1,50.0,43.6,16.7,10.1016/j.matlet.2016.03.133
1130,Co1 Cr1 Fe1 Ni1 W0.2,52.0,51.7,16.6,10.1016/j.intermet.2019.106550
762,Al0.25 Cr0.417 Fe0.417 Ni1,45.0,40.8,16.5,10.1016/j.jallcom.2018.08.176
295,Cr1 Nb1 Ti1 Zr1,6.0,10.9,16.5,10.1016/j.msea.2012.12.018
299,Nb0.5 Ti0.5 V1 Zr0.5,50.0,43.7,16.5,10.1016/j.msea.2012.12.018
17,Co1 Cr1 Fe1 Nb0.155 Ni1,23.0,26.8,16.3,10.1016/j.intermet.2015.01.004
771,Co1 Cr1 Fe1 Mn1 Ni1,0.7,8.1,16.3,10.1016/j.scriptamat.2018.11.042
1131,Co1 Cr1 Fe1 Ni1 W0.5,35.6,40.3,16.3,10.1016/j.intermet.2019.106550
770,Co1 Cr1 Fe1 Mn1 Ni1,6.0,8.1,16.3,10.1016/j.scriptamat.2018.11.042
1398,Al0.569 Ca0.143 Li0.857 Mg1 Si0.286 Y0.003,3.0,9.6,16.1,10.3390/ma12071136
745,Al1 Co1 Cr1 Fe1 Ni1,12.0,13.7,16.1,10.1016/j.msea.2015.08.078
749,Al0.5 Co1 Cr1 Cu1 Fe1 Ni1,12.0,12.5,16.0,10.1016/j.jallcom.2009.10.088
748,Al0.5 Co1 Cr1 Cu1 Fe1 Ni1,5.0,12.5,16.0,10.1016/j.jallcom.2009.10.088
399,Cu1 Mn1 Ni1 Sn0.053,63.0,55.0,15.9,10.1016/j.jallcom.2015.07.285
736,Al0.242 Co0.515 Cr0.515 Cu0.242 Fe0.515 Ni1,9.0,15.7,15.8,10.1007/s11837-013-0756-3
268,Al0.667 Nb1 Ta0.333 Ti1 Zr0.333,50.0,44.2,15.8,10.1007/s11837-014-1066-0
1184,Co0.333 Cr0.667 Fe0.667 Ni1 Ti0.2,46.0,39.1,15.8,10.1016/j.msea.2019.138181
1256,Co0.476 Cr0.476 Fe0.476 Nb0.095 Ni1,19.0,27.1,15.7,10.1016/j.matlet.2019.04.012
56,Al0.7 Co0.3 Cr1 Fe1 Ni1,8.0,16.2,15.4,10.1016/j.matdes.2013.04.061
1025,Al1 Cr1 Cu1 Fe1 Ni1,5.0,13.1,15.3,10.1016/j.jallcom.2019.01.341
686,Co1 Cr1 Fe1 Mo0.083 Ni1,51.1,48.1,15.3,10.1016/j.actamat.2016.06.063
345,Mo1 Nb1 Ta1 V1 W1,40.0,32.5,15.2,10.1016/j.intermet.2011.01.004
348,Mo1 Nb1 Ta1 W1,40.0,33.5,15.2,10.1016/j.intermet.2011.01.004
688,Co1 Cr1 Fe1 Mo0.304 Ni1,49.3,43.7,15.1,10.1016/j.actamat.2016.06.063
331,Hf0.333 Nb0.333 Ta0.333 Ti1 Zr0.667,19.0,21.8,15.1,10.1063/1.49667
289,Cr1 Mo0.5 Nb1 Ta0.5 Ti1 Zr1,50.0,45.6,14.9,10.1016/j.msea.2011.09.033
303,Nb1 Ti1 V1 Zr1,50.0,44.4,14.8,10.1016/j.msea.2012.12.018
751,Co1 Cr1 Fe1 Ni1 Ti0.2,46.0,39.5,14.7,10.1016/j.actamat.2018.11.049
1257,Co0.476 Cr0.476 Fe0.476 Nb0.19 Ni1,3.0,8.8,14.6,10.1016/j.matlet.2019.04.012
[...]
1394,Co1 Cr1 Fe1 Mo0.2 Ni1,37.0,39.1,3.0,10.3390/e21050448
1393,Co1 Cr1 Fe1 Mo0.2 Ni1,47.0,39.1,3.0,10.3390/e21050448
1389,Co1 Cr1 Fe1 Mo0.2 Ni1,31.0,39.1,3.0,10.3390/e21050448
1391,Co1 Cr1 Fe1 Mo0.2 Ni1,52.0,39.1,3.0,10.3390/e21050448
1390,Co1 Cr1 Fe1 Mo0.2 Ni1,29.0,39.1,3.0,10.3390/e21050448
1388,Co1 Cr1 Fe1 Mo0.2 Ni1,43.0,39.1,3.0,10.3390/e21050448
1085,Co0.286 Cr0.429 Fe1 Mn0.143 Ni0.714 V0.286,51.0,50.8,3.0,10.1016/j.msea.2018.12.077
1084,Co0.286 Cr0.429 Fe1 Mn0.143 Ni0.714 V0.286,50.0,50.8,3.0,10.1016/j.msea.2018.12.077
1083,Co0.286 Cr0.429 Fe1 Mn0.143 Ni0.714 V0.286,49.0,50.8,3.0,10.1016/j.msea.2018.12.077
1087,Co0.286 Cr0.429 Fe1 Mn0.143 Ni0.714 V0.286,52.0,50.8,3.0,10.1016/j.msea.2018.12.077
1120,Hf1 Mo1 Nb1 Ta1 Ti1 W1 Zr1,35.0,35.2,2.9,10.1016/j.jallcom.2019.06.138
1117,Hf1 Nb1 Ta1 Ti1 W1 Zr1,35.0,34.9,2.8,10.1016/j.jallcom.2019.06.138
252,Al0.214 Nb0.714 Ta0.571 Ti1 V0.143 Zr0.929,50.0,49.9,2.8,10.1007/s11837-014-1066-0
255,Al0.214 Nb0.714 Ta0.714 Ti1 Zr0.929,50.0,49.9,2.8,10.1007/s11837-014-1066-0
298,Cr1 Nb1 Ti1 Zr1,50.0,49.9,2.7,10.1016/j.msea.2012.12.018
1119,Hf1 Nb1 Ta1 Ti1 W1 Zr1,35.0,34.9,2.7,10.1016/j.jallcom.2019.06.138
1080,Al0.278 Co0.694 Cr0.222 Fe0.417 Ni1 Ti0.167,17.0,13.5,2.6,10.3390/e21020169
711,Al0.278 Co0.694 Cr0.222 Fe0.417 Ni1 Ti0.167,18.0,13.5,2.6,10.1007/s11837-015-1484-7
712,Al0.278 Co0.694 Cr0.222 Fe0.417 Ni1 Ti0.167,11.0,13.5,2.6,10.1007/s11837-015-1484-7
1075,Al0.278 Co0.694 Cr0.222 Fe0.417 Ni1 Ti0.167,9.0,13.5,2.6,10.3390/e21020169
1242,Hf0.25 Nb0.25 Ti1 V0.5 Zr0.5,50.0,49.9,2.5,10.1007/s40195-019-00921-3
1243,Hf0.25 Nb0.25 Ti1 V0.5 Zr0.5,50.0,49.9,2.5,10.1007/s40195-019-00921-3
302,Nb0.5 Ti0.5 V1 Zr0.5,50.0,49.9,2.1,10.1016/j.msea.2012.12.018
1127,Nb1 Ti1 Zr1,51.0,50.8,2.0,10.1007/s12598-019-01310-6
543,Hf1 Nb1 Ta1 Ti1 Zr1,9.2,10.6,1.9,10.1016/j.actamat.2017.09.035
544,Hf1 Nb1 Ta1 Ti1 Zr1,4.7,10.6,1.9,10.1016/j.jallcom.2015.07.209
546,Hf1 Nb1 Ta1 Ti1 Zr1,9.7,10.6,1.9,10.1016/j.jallcom.2015.07.209
982,Hf1 Nb1 Ta1 Ti1 Zr1,12.6,10.6,1.9,10.1016/j.jallcom.2019.04.291
981,Hf1 Nb1 Ta1 Ti1 Zr1,15.7,10.6,1.9,10.1016/j.jallcom.2019.04.291
983,Hf1 Nb1 Ta1 Ti1 Zr1,10.8,10.6,1.9,10.1016/j.jallcom.2019.04.291
1074,Al0.278 Co0.694 Cr0.222 Fe0.417 Ni1 Ti0.167,11.0,11.9,1.7,10.3390/e21020169
258,Al0.4 Hf0.6 Nb1 Ta1 Ti1 Zr1,50.0,49.9,1.7,10.1007/s11837-014-1066-0
1079,Al0.278 Co0.694 Cr0.222 Fe0.417 Ni1 Ti0.167,12.0,11.9,1.7,10.3390/e21020169
1263,Cr1 Mo1 Nb1 Ti1 W1,10.0,5.8,1.3,10.1007/s11837-019-03432-9
1267,Cr1 Mo1 Nb1 Ti1 W1,5.0,5.8,1.3,10.1007/s11837-019-03432-9
1266,Cr1 Mo1 Nb1 Ti1 W1,4.3,5.8,1.3,10.1007/s11837-019-03432-9
1265,Cr1 Mo1 Nb1 Ti1 W1,4.85,5.8,1.3,10.1007/s11837-019-03432-9
1264,Cr1 Mo1 Nb1 Ti1 W1,4.8,5.8,1.3,10.1007/s11837-019-03432-9
817,Cr1 Cu1 Fe1 Mn1 Ni1,5.0,4.9,0.8,10.1016/j.matchemphys.2018.09.033
818,Cr1 Cu1 Fe1 Mn1 Ni1,5.2,4.9,0.8,10.1016/j.matchemphys.2018.09.033
821,Cr1 Cu1 Fe1 Mn1 Ni1,4.9,4.9,0.8,10.1016/j.matchemphys.2018.09.033
820,Cr1 Cu1 Fe1 Mn1 Ni1,4.6,4.9,0.8,10.1016/j.matchemphys.2018.09.033
819,Cr1 Cu1 Fe1 Mn1 Ni1,4.3,4.9,0.8,10.1016/j.matchemphys.2018.09.033
1128,Hf1 Nb1 Ti1 Zr1,51.0,50.9,0.4,10.1007/s12598-019-01310-6
1126,Hf1 Nb1 Ti1 Zr1,51.0,50.9,0.4,10.1007/s12598-019-01310-6
337,Hf1 Nb1 Ta1 Ti1 Zr1,50.0,50.0,0.2,10.1007/s10853-012-6260-2
336,Hf1 Nb1 Ta1 Ti1 Zr1,50.0,50.0,0.1,10.1007/s10853-012-6260-2
335,Hf1 Nb1 Ta1 Ti1 Zr1,50.0,50.0,0.1,10.1007/s10853-012-6260-2
352,Mo1 Nb1 Ta1 W1,40.0,40.0,0.0,10.1016/j.intermet.2011.01.004
353,Mo1 Nb1 Ta1 W1,40.0,40.0,0.0,10.1016/j.intermet.2011.01.004
305,Nb1 Ti1 V1 Zr1,50.0,50.0,0.0,10.1016/j.msea.2012.12.018
306,Nb1 Ti1 V1 Zr1,50.0,50.0,0.0,10.1016/j.msea.2012.12.018

File: PROPERTY: Calculated Young modulus _std.csv
,FORMULA,PROPERTY: Calculated Young modulus (GPa)_std
0,Al0.1 Co1 Cr1 Fe1 Ni1,0
53,Cr1 Mo1 Ta1 Ti1,0
61,Hf1 Mo1 Nb1 Ta1 Ti1,0
60,Hf1 Mo0.5 Nb1 Ti1 V0.5,0
59,Hf0.5 Nb0.667 Ta0.333 Ti1 Zr0.833,0
58,Hf0.26 Nb1 Ta1 Ti0.578 Zr0.416,0
57,Hf0.25 Ti1 V0.5 Zr0.5,0
56,Hf0.25 Nb0.5 Ti1 V0.5 Zr0.5,0
55,Hf0.25 Nb0.25 Ti1 V0.5 Zr0.5,0
54,Fe1 Mn1 Ni1,0
52,Cr1 Mo1 Nb1 Ti1,0
1,Al0.143 Cr0.343 Fe1 Mn0.8 Ni0.571,0
51,Cr0.5 Fe0.5 Ni1 Ti0.15,0
50,Co1 Mn1 Ni1,0
49,Co1 Fe1 Ni1,0
48,Co1 Cu1 Fe1 Mn1 Ni1,0
47,Co1 Cr1 Ni1,0
46,Co1 Cr1 Fe1 Ni1 Ti0.3,0
45,Co1 Cr1 Fe1 Ni1 Ti0.2,0
44,Co1 Cr1 Fe1 Ni1,0
62,Hf1 Mo1 Nb1 Ta1 Ti1 Zr1,0
63,Hf1 Mo1 Nb1 Ta1 Zr1,0
64,Hf1 Mo1 Nb1 Ti1 Zr1,0
65,Hf1 Mo1 Ta1 Ti1 Zr1,0
82,Nb1 Ti1 V1 Zr1,0
81,Nb1 Ta1 Ti1 W1,0
80,Nb1 Ta1 Ti1 V1,0
79,Nb1 Ta1 Ti1,0
78,Nb1 Ta0.3 Ti1 Zr1,0
77,Nb0.5 Ti0.5 V1 Zr0.5,0
76,Mo1 Nb1 Ti1 V1 Zr1,0
75,Mo1 Nb1 Ti1,0
74,Mo1 Nb1 Ta1 W1,0
73,Mo1 Nb1 Ta1 V1 W1,0
72,Mo1 Nb1 Ta1 Ti1 W1,0
71,Mo1 Nb1 Ta1 Ti1 V1 W1,0
70,Mo1 Nb1 Ta1 Ti1,0
69,Hf1 Nb1 Ti1 Zr1,0
68,Hf1 Nb1 Ti1 V1 Zr1,0
67,Hf1 Nb1 Ta1 Ti1 Zr1,0
66,Hf1 Nb1 Ta1 Ti1,0
43,Co1 Cr1 Fe1 Mo0.2 Ni1,0
42,Co1 Cr1 Fe1 Mo0.15 Ni1,0
41,Co1 Cr1 Fe1 Mn1 Ni1 V0.5,0
20,Al1 Cr0.5 Nb1 Ti1 V1,0
18,Al1 Co0.8 Cr0.8 Fe0.8 Ni0.8,0
17,Al1 Co0.667 Cr0.667 Fe0.667 Ni0.667,0
16,Al1 Co0.5 Cr0.5 Fe0.5 Ni0.5,0
15,Al1 Co0.5 Cr0.5 Cu0.5 Fe0.5 Ni0.5,0
14,Al0.667 Nb1 Ta0.333 Ti1 Zr0.333,0
13,Al0.5 Cr1 Cu1 Fe1 Ni1,0
12,Al0.5 Co1 Cr1 Cu1 Fe1 Ni1,0
11,Al0.4 Hf0.6 Nb1 Ta1 Ti1 Zr1,0
10,Al0.375 Co1 Cr1 Fe1 Ni1,0
9,Al0.333 Nb0.667 Ta0.533 Ti1 V0.133 Zr0.667,0
8,Al0.304 Co1 Cr1 Fe1 Ni1,0
7,Al0.3 Co1 Cr1 Fe1 Ni1,0
6,Al0.286 Cr0.343 Fe1 Mn0.657 Ni0.571,0
5,Al0.278 Co0.694 Cr0.222 Fe0.417 Ni1 Ti0.167,0
4,Al0.25 Co1 Cr1 Fe1 Ni1,0
3,Al0.214 Nb0.714 Ta0.714 Ti1 Zr0.929,0
2,Al0.214 Nb0.714 Ta0.571 Ti1 V0.143 Zr0.929,0
19,Al1 Co1 Cr1 Fe1 Ni1,0
21,Al1 Cr1 Mo1 Nb1 Ti1,0
40,Co1 Cr1 Fe1 Mn1 Ni1,0
22,Al1 Cr1 Mo1 Ti1,0
39,Co1 Cr1 Cu1 Ni1 Zn1,0
38,Co1 Cr1 Cu1 Fe1 Ni1 Ti0.5,0
37,Co1 Cr1 Cu1 Fe1 Ni1,0
36,Co1 Cr0.588 Fe0.176 Mo0.176 Ni1,0
35,Co1 Cr0.429 Fe0.571 Mo0.286 Ni0.571,0
34,Co1 Cr0.25 Ni1,0
33,Co1 Cr0.2 Fe1 Ni1 Si0.2,0
32,Co0.986 Cr0.952 Fe0.933 Mn0.914 Ni1,0
31,Co0.5 Fe0.5 Mo0.1 Ni1 V0.25,0
30,Co0.333 Cr0.667 Fe0.667 Ni1 Ti0.2,0
29,Co0.286 Cr0.429 Fe1 Mn0.143 Ni0.714 V0.286,0
28,Co0.25 Cr1 Ni1,0
27,Co0.25 Cr0.25 Fe1 Mn1,0
26,Al1 Nb1 Ti1 V1,0
25,Al1 Nb1 Ta1 Ti1,0
24,Al1 Mo1 Nb1 Ti1,0
23,Al1 Cu0.889 Fe0.667 Ni0.889 Ti1,0
83,Nb1 Ti1 Zr1,0